trials.A1:K1thisRepN,trials.thisTrialN,trials.thisN,trials.thisIndex,num_distr,fixation.started,target.started,mouse.started,mouse.x,mouse.y,mouse.leftButton,mouse.midButton,mouse.rightButton,mouse.time,mouse.clicked_name,participant,session,date,expName,psychopyVersion,frameRate,,,,,
0,0,0,0,5,17.5952134,17.5952134,0.0364077,0.192592593,0.30462963,1,0,0,1.9380593,  'target'  ,Trial2,1,2023-09-28_19h55.47.142,Visual_Search_Exp,2022.2.4,60.03035133,,,,,
1,0,1,0,5,19.556784,19.556784,0.0217336,0.399074074,0.073148148,1,0,0,1.9867257,  'target'  ,Trial2,1,2023-09-28_19h55.47.142,Visual_Search_Exp,2022.2.4,60.03035133,,,,,
2,0,2,0,5,21.5671822,21.5671822,0.0197654,-0.112037037,-0.109259259,1,0,0,1.1607366,    ,Trial2,1,2023-09-28_19h55.47.142,Visual_Search_Exp,2022.2.4,60.03035133,,,,,
3,0,3,0,5,22.7542854,22.7542854,0.0206494,0.299074074,-0.331481481,1,0,0,1.3402103,  'target'  ,Trial2,1,2023-09-28_19h55.47.142,Visual_Search_Exp,2022.2.4,60.03035133,,,,,
4,0,4,0,5,33.3703197,33.3703197,0.0240915,0.133333333,-0.267592593,1,0,0,1.6724091,  'target'  ,Trial2,1,2023-09-28_19h55.47.142,Visual_Search_Exp,2022.2.4,60.03035133,,,,,
5,0,5,0,5,35.0747099,35.0747099,0.0250666,-0.189814815,-0.009259259,1,0,0,1.4839293,  'target'  ,Trial2,1,2023-09-28_19h55.47.142,Visual_Search_Exp,2022.2.4,60.03035133,,,,,
6,0,6,0,5,36.5908544,36.5908544,0.0249471,0.424074074,0.126851852,1,0,0,1.6344092,  'target'  ,Trial2,1,2023-09-28_19h55.47.142,Visual_Search_Exp,2022.2.4,60.03035133,,,,,
7,0,7,0,5,38.2550542,38.2550542,0.0230287,-0.101851852,0.227777778,1,0,0,2.1705995,  'target'  ,Trial2,1,2023-09-28_19h55.47.142,Visual_Search_Exp,2022.2.4,60.03035133,,,,,
8,0,8,0,5,41.5548209,41.5548209,0.0249868,0.273148148,0.240740741,1,0,0,1.9376732,  'target'  ,Trial2,1,2023-09-28_19h55.47.142,Visual_Search_Exp,2022.2.4,60.03035133,,,,,
9,0,9,0,5,43.5241613,43.5241613,0.0261317,0.409259259,-0.265740741,1,0,0,1.8189637,  'target'  ,Trial2,1,2023-09-28_19h55.47.142,Visual_Search_Exp,2022.2.4,60.03035133,,,,,
10,0,10,0,5,47.1530629,47.1530629,0.0186129,0.071296296,0.3,1,0,0,1.2732288,  'target'  ,Trial2,1,2023-09-28_19h55.47.142,Visual_Search_Exp,2022.2.4,60.03035133,,,,,
11,0,11,0,5,50.328159,50.328159,0.0167516,-0.306481481,0.451851852,1,0,0,1.8136049,  'target'  ,Trial2,1,2023-09-28_19h55.47.142,Visual_Search_Exp,2022.2.4,60.03035133,,,avrg,avrg 5 ,avrg 10
12,0,12,0,5,52.1630361,52.1630361,0.0174409,0.388888889,0.497222222,1,0,0,1.496093,  'target'  ,Trial2,1,2023-09-28_19h55.47.142,Visual_Search_Exp,2022.2.4,60.03035133,,,1.782536498,1.728007696,1.7331357
13,0,13,0,5,53.6783432,53.6783432,0.0163391,-0.062037037,0.402777778,1,0,0,1.4132648,  'target'  ,Trial2,1,2023-09-28_19h55.47.142,Visual_Search_Exp,2022.2.4,60.03035133,,,,,
14,0,14,0,5,56.6630053,56.6630053,0.0180159,0.073148148,0.371296296,1,0,0,1.5448962,  'target'  ,Trial2,1,2023-09-28_19h55.47.142,Visual_Search_Exp,2022.2.4,60.03035133,,,,,
15,0,15,0,5,58.2280409,58.2280409,0.0161731,0.133333333,-0.283333333,1,0,0,1.5639392,  'target'  ,Trial2,1,2023-09-28_19h55.47.142,Visual_Search_Exp,2022.2.4,60.03035133,,,,,
16,0,16,0,5,61.3116956,61.3116956,0.0171819,0.361111111,-0.012962963,1,0,0,1.4293839,  'target'  ,Trial2,1,2023-09-28_19h55.47.142,Visual_Search_Exp,2022.2.4,60.03035133,,,,,
17,0,17,0,5,64.9287829,64.9287829,0.0170426,0.153703704,-0.066666667,1,0,0,1.3801464,  'target'  ,Trial2,1,2023-09-28_19h55.47.142,Visual_Search_Exp,2022.2.4,60.03035133,,,,,
18,0,18,0,5,67.945616,67.945616,0.0179672,-0.428703704,-0.323148148,1,0,0,1.6621224,  'target'  ,Trial2,1,2023-09-28_19h55.47.142,Visual_Search_Exp,2022.2.4,60.03035133,,,,,
19,0,19,0,5,69.6294368,69.6294368,0.0179903,-0.22962963,0.225,1,0,0,1.4951752,  'target'  ,Trial2,1,2023-09-28_19h55.47.142,Visual_Search_Exp,2022.2.4,60.03035133,,,,,
20,0,20,0,5,76.8959949,76.8959949,0.0168194,0.20462963,-0.087962963,1,0,0,1.4787828,  'target'  ,Trial2,1,2023-09-28_19h55.47.142,Visual_Search_Exp,2022.2.4,60.03035133,,,,,
21,0,21,0,5,78.3935472,78.3935472,0.0156256,0.159259259,-0.333333333,1,0,0,1.4477687,  'target'  ,Trial2,1,2023-09-28_19h55.47.142,Visual_Search_Exp,2022.2.4,60.03035133,,,,,
22,0,22,0,5,79.8611441,79.8611441,0.0170425,-0.273148148,0.351851852,1,0,0,2.2802052,  'target'  ,Trial2,1,2023-09-28_19h55.47.142,Visual_Search_Exp,2022.2.4,60.03035133,,,,,
23,0,23,0,5,83.9623786,83.9623786,0.0172852,-0.45462963,0.090740741,1,0,0,1.513298,  'target'  ,Trial2,1,2023-09-28_19h55.47.142,Visual_Search_Exp,2022.2.4,60.03035133,,,,,
24,0,24,0,5,87.5440891,87.5440891,0.0158873,-0.310185185,0.197222222,1,0,0,1.8627801,  'target'  ,Trial2,1,2023-09-28_19h55.47.142,Visual_Search_Exp,2022.2.4,60.03035133,,,,,
25,0,25,0,5,89.4269725,89.4269725,0.0170366,-0.163888889,-0.290740741,1,0,0,1.6638097,  'target'  ,Trial2,1,2023-09-28_19h55.47.142,Visual_Search_Exp,2022.2.4,60.03035133,,,,,
26,0,26,0,5,91.1111012,91.1111012,0.0169789,-0.235185185,-0.293518519,1,0,0,1.4460595,  'target'  ,Trial2,1,2023-09-28_19h55.47.142,Visual_Search_Exp,2022.2.4,60.03035133,,,,,
27,0,27,0,5,96.5147631,96.5147631,0.0197744,0.05,-0.025,1,0,0,1.7597038,  'target'  ,Trial2,1,2023-09-28_19h55.47.142,Visual_Search_Exp,2022.2.4,60.03035133,,,,,
28,0,28,0,5,98.295197,98.295197,0.0174662,-0.396296296,0.088888889,1,0,0,1.7287514,  'target'  ,Trial2,1,2023-09-28_19h55.47.142,Visual_Search_Exp,2022.2.4,60.03035133,,,,,
29,0,29,0,5,106.1774402,106.1774402,0.0172065,-0.351851852,-0.001851852,1,0,0,1.1971733,  'target'  ,Trial2,1,2023-09-28_19h55.47.142,Visual_Search_Exp,2022.2.4,60.03035133,,,,,
30,0,30,0,5,109.6606781,109.6606781,0.0175901,-0.277777778,-0.27037037,1,0,0,1.7801506,  'target'  ,Trial2,1,2023-09-28_19h55.47.142,Visual_Search_Exp,2022.2.4,60.03035133,,,,,
31,0,31,0,5,111.461308,111.461308,0.0168565,-0.326851852,0.010185185,1,0,0,1.6622071,  'target'  ,Trial2,1,2023-09-28_19h55.47.142,Visual_Search_Exp,2022.2.4,60.03035133,,,,,
32,0,32,0,5,116.6602482,116.6602482,0.0161895,0.378703704,-0.168518519,1,0,0,2.7469887,  'target'  ,Trial2,1,2023-09-28_19h55.47.142,Visual_Search_Exp,2022.2.4,60.03035133,,,,,
33,0,33,0,5,123.9457057,123.9457057,0.0173532,0.387037037,-0.215740741,1,0,0,1.4948099,  'target'  ,Trial2,1,2023-09-28_19h55.47.142,Visual_Search_Exp,2022.2.4,60.03035133,,,,,
34,0,34,0,5,126.8425573,126.8425573,0.0151577,-0.282407407,0.239814815,1,0,0,1.3818678,  'target'  ,Trial2,1,2023-09-28_19h55.47.142,Visual_Search_Exp,2022.2.4,60.03035133,,,,,
35,0,35,0,5,128.2459043,128.2459043,0.0179968,-0.34537037,-0.375,1,0,0,2.0942276,  'target'  ,Trial2,1,2023-09-28_19h55.47.142,Visual_Search_Exp,2022.2.4,60.03035133,,,,,
36,0,36,0,5,130.3616888,130.3616888,0.0174141,0.172222222,0.037037037,1,0,0,1.6627389,  'target'  ,Trial2,1,2023-09-28_19h55.47.142,Visual_Search_Exp,2022.2.4,60.03035133,,,,,
37,0,37,0,5,142.5107,142.5107,0.0169653,-0.332407407,-0.256481481,1,0,0,1.7788322,  'target'  ,Trial2,1,2023-09-28_19h55.47.142,Visual_Search_Exp,2022.2.4,60.03035133,,,,,
38,0,38,0,5,145.7435726,145.7435726,0.0161955,-0.399074074,0.131481481,1,0,0,1.546617,  'target'  ,Trial2,1,2023-09-28_19h55.47.142,Visual_Search_Exp,2022.2.4,60.03035133,,,,,
39,0,39,0,5,151.6763933,151.6763933,0.0161257,0.233333333,-0.166666667,1,0,0,1.7802745,  'target'  ,Trial2,1,2023-09-28_19h55.47.142,Visual_Search_Exp,2022.2.4,60.03035133,,,,,
40,0,40,0,5,163.4425027,163.4425027,0.0166865,0.472222222,-0.041666667,1,0,0,1.5304742,  'target'  ,Trial2,1,2023-09-28_19h55.47.142,Visual_Search_Exp,2022.2.4,60.03035133,,,,,
41,0,41,0,5,167.0922688,167.0922688,0.0163449,-0.478703704,-0.213888889,1,0,0,1.4808854,  'target'  ,Trial2,1,2023-09-28_19h55.47.142,Visual_Search_Exp,2022.2.4,60.03035133,,,,,
42,0,42,0,5,168.5932942,168.5932942,0.0167704,-0.066666667,-0.299074074,1,0,0,1.4298908,  'target'  ,Trial2,1,2023-09-28_19h55.47.142,Visual_Search_Exp,2022.2.4,60.03035133,,,,,
43,0,43,0,5,171.7270496,171.7270496,0.0173564,0.488888889,0.467592593,1,0,0,1.5791493,  'target'  ,Trial2,1,2023-09-28_19h55.47.142,Visual_Search_Exp,2022.2.4,60.03035133,,,,,
44,0,44,0,5,177.8941463,177.8941463,0.0167161,0.253703704,-0.471296296,1,0,0,1.8949065,  'target'  ,Trial2,1,2023-09-28_19h55.47.142,Visual_Search_Exp,2022.2.4,60.03035133,,,,,
45,0,45,0,5,187.4762401,187.4762401,0.0167055,0.147222222,-0.02037037,1,0,0,1.9975577,  'target'  ,Trial2,1,2023-09-28_19h55.47.142,Visual_Search_Exp,2022.2.4,60.03035133,,,,,
46,0,46,0,5,197.7441784,197.7441784,0.0175987,0.144444444,0.213888889,1,0,0,1.6287816,  'target'  ,Trial2,1,2023-09-28_19h55.47.142,Visual_Search_Exp,2022.2.4,60.03035133,,,,,
47,0,47,0,5,200.8257426,200.8257426,0.0164234,0.107407407,-0.375,1,0,0,1.4816638,  'target'  ,Trial2,1,2023-09-28_19h55.47.142,Visual_Search_Exp,2022.2.4,60.03035133,,,,,
48,0,48,0,5,202.3266989,202.3266989,0.0163903,0.399074074,0.187037037,1,0,0,1.5784076,  'target'  ,Trial2,1,2023-09-28_19h55.47.142,Visual_Search_Exp,2022.2.4,60.03035133,,,,,
49,0,49,0,5,203.9259375,203.9259375,0.0176405,0.238888889,-0.030555556,1,0,0,1.3965133,  'target'  ,Trial2,1,2023-09-28_19h55.47.142,Visual_Search_Exp,2022.2.4,60.03035133,,,,,
50,0,50,0,5,205.3539809,205.3539809,0.0243689,-0.213888889,-0.086111111,1,0,0,2.019419,  'target'  ,Trial2,1,2023-09-28_19h55.47.142,Visual_Search_Exp,2022.2.4,60.03035133,,,,,
51,0,51,0,5,207.3928845,207.3928845,0.0172356,-0.32037037,-0.182407407,1,0,0,1.5638683,  'target'  ,Trial2,1,2023-09-28_19h55.47.142,Visual_Search_Exp,2022.2.4,60.03035133,,,,,
52,0,52,0,5,208.9777338,208.9777338,0.0178227,0.205555556,0.419444444,1,0,0,1.7619204,  'target'  ,Trial2,1,2023-09-28_19h55.47.142,Visual_Search_Exp,2022.2.4,60.03035133,,,,,
53,0,53,0,5,210.7603223,210.7603223,0.0168523,-0.239814815,-0.230555556,1,0,0,1.8793516,  'target'  ,Trial2,1,2023-09-28_19h55.47.142,Visual_Search_Exp,2022.2.4,60.03035133,,,,,
54,0,54,0,5,216.4786437,216.4786437,0.0262672,0.477777778,0.431481481,1,0,0,2.2169334,  'target'  ,Trial2,1,2023-09-28_19h55.47.142,Visual_Search_Exp,2022.2.4,60.03035133,,,,,
55,0,55,0,5,218.7104754,218.7104754,0.0166088,-0.071296296,-0.461111111,1,0,0,2.0950475,  'target'  ,Trial2,1,2023-09-28_19h55.47.142,Visual_Search_Exp,2022.2.4,60.03035133,,,,,
56,0,56,0,5,220.8249825,220.8249825,0.016387,-0.155555556,0.057407407,1,0,0,1.8468922,  'target'  ,Trial2,1,2023-09-28_19h55.47.142,Visual_Search_Exp,2022.2.4,60.03035133,,,,,
57,0,57,0,5,224.124533,224.124533,0.0164064,-0.491666667,-0.322222222,1,0,0,1.5632783,  'target'  ,Trial2,1,2023-09-28_19h55.47.142,Visual_Search_Exp,2022.2.4,60.03035133,,,,,
58,0,58,0,5,225.707732,225.707732,0.0163081,-0.109259259,0.244444444,1,0,0,1.731338,  'target'  ,Trial2,1,2023-09-28_19h55.47.142,Visual_Search_Exp,2022.2.4,60.03035133,,,,,
59,0,59,0,5,227.4649159,227.4649159,0.0208383,-0.125925926,-0.100925926,1,0,0,1.7081633,  'target'  ,Trial2,1,2023-09-28_19h55.47.142,Visual_Search_Exp,2022.2.4,60.03035133,,,,,
60,0,60,0,5,231.025871,231.025871,0.0173717,-0.259259259,-0.299074074,1,0,0,1.7788374,  'target'  ,Trial2,1,2023-09-28_19h55.47.142,Visual_Search_Exp,2022.2.4,60.03035133,,,,,
61,0,61,0,5,236.7587902,236.7587902,0.016302,0.167592593,0.47962963,1,0,0,1.7632216,  'target'  ,Trial2,1,2023-09-28_19h55.47.142,Visual_Search_Exp,2022.2.4,60.03035133,,,,,
62,0,62,0,5,241.7233607,241.7233607,0.0159117,-0.212037037,-0.418518519,1,0,0,1.5307429,  'target'  ,Trial2,1,2023-09-28_19h55.47.142,Visual_Search_Exp,2022.2.4,60.03035133,,,,,
63,0,63,0,5,251.5590234,251.5590234,0.0174577,-0.07962963,-0.439814815,1,0,0,1.7124067,  'target'  ,Trial2,1,2023-09-28_19h55.47.142,Visual_Search_Exp,2022.2.4,60.03035133,,,,,
64,0,64,0,5,253.2919291,253.2919291,0.0172182,-0.2,-0.34537037,1,0,0,1.6471768,  'target'  ,Trial2,1,2023-09-28_19h55.47.142,Visual_Search_Exp,2022.2.4,60.03035133,,,,,
65,0,65,0,5,258.741435,258.741435,0.0175678,-0.474074074,0.152777778,1,0,0,1.8302433,  'target'  ,Trial2,1,2023-09-28_19h55.47.142,Visual_Search_Exp,2022.2.4,60.03035133,,,,,
66,0,66,0,5,262.4668021,262.4668021,0.021868,-0.318518519,-0.15,1,0,0,1.8232776,  'target'  ,Trial2,1,2023-09-28_19h55.47.142,Visual_Search_Exp,2022.2.4,60.03035133,,,,,
67,0,67,0,5,264.3098718,264.3098718,0.0177994,0.193518519,-0.434259259,1,0,0,1.7786617,  'target'  ,Trial2,1,2023-09-28_19h55.47.142,Visual_Search_Exp,2022.2.4,60.03035133,,,,,
68,0,68,0,5,270.0262466,270.0262466,0.0174784,0.137962963,0.132407407,1,0,0,1.9452487,  'target'  ,Trial2,1,2023-09-28_19h55.47.142,Visual_Search_Exp,2022.2.4,60.03035133,,,,,
69,0,69,0,5,275.7585,275.7585,0.0173696,-0.137962963,-0.092592593,1,0,0,2.1294054,  'target'  ,Trial2,1,2023-09-28_19h55.47.142,Visual_Search_Exp,2022.2.4,60.03035133,,,,,
70,0,70,0,5,279.6253745,279.6253745,0.0171743,-0.180555556,-0.087037037,1,0,0,1.9954671,  'target'  ,Trial2,1,2023-09-28_19h55.47.142,Visual_Search_Exp,2022.2.4,60.03035133,,,,,
71,0,71,0,5,285.4158174,285.4158174,0.0216192,0.441666667,0.22037037,1,0,0,1.6399094,  'target'  ,Trial2,1,2023-09-28_19h55.47.142,Visual_Search_Exp,2022.2.4,60.03035133,,,,,
72,0,72,0,5,287.0733848,287.0733848,0.0166663,0.466666667,-0.40462963,1,0,0,2.3140492,  'target'  ,Trial2,1,2023-09-28_19h55.47.142,Visual_Search_Exp,2022.2.4,60.03035133,,,,,
73,0,73,0,5,289.4085128,289.4085128,0.0171771,0.17037037,-0.475,1,0,0,2.0295649,  'target'  ,Trial2,1,2023-09-28_19h55.47.142,Visual_Search_Exp,2022.2.4,60.03035133,,,,,
74,0,74,0,5,293.7746382,293.7746382,0.0159474,-0.048148148,0.265740741,1,0,0,2.2135331,  'target'  ,Trial2,1,2023-09-28_19h55.47.142,Visual_Search_Exp,2022.2.4,60.03035133,,,,,
75,0,75,0,5,298.2423184,298.2423184,0.0175786,0.12037037,0.107407407,1,0,0,2.4124564,  'target'  ,Trial2,1,2023-09-28_19h55.47.142,Visual_Search_Exp,2022.2.4,60.03035133,,,,,
76,0,76,0,5,302.5430867,302.5430867,0.0177914,0.326851852,0.212037037,1,0,0,1.5444276,  'target'  ,Trial2,1,2023-09-28_19h55.47.142,Visual_Search_Exp,2022.2.4,60.03035133,,,,,
77,0,77,0,5,304.1081479,304.1081479,0.0167835,-0.178703704,0.150925926,1,0,0,2.0959401,  'target'  ,Trial2,1,2023-09-28_19h55.47.142,Visual_Search_Exp,2022.2.4,60.03035133,,,,,
78,0,78,0,5,310.0255223,310.0255223,0.0174316,0.102777778,-0.45,1,0,0,1.8449832,  'target'  ,Trial2,1,2023-09-28_19h55.47.142,Visual_Search_Exp,2022.2.4,60.03035133,,,,,
79,0,79,0,5,313.8076605,313.8076605,0.0171354,0.294444444,-0.153703704,1,0,0,1.5458348,  'target'  ,Trial2,1,2023-09-28_19h55.47.142,Visual_Search_Exp,2022.2.4,60.03035133,,,,,
80,0,80,0,5,320.1731144,320.1731144,0.0161931,-0.300925926,-0.361111111,1,0,0,1.4975077,  'target'  ,Trial2,1,2023-09-28_19h55.47.142,Visual_Search_Exp,2022.2.4,60.03035133,,,,,
81,0,81,0,5,321.692083,321.692083,0.0182449,-0.468518519,0.344444444,1,0,0,1.7279138,  'target'  ,Trial2,1,2023-09-28_19h55.47.142,Visual_Search_Exp,2022.2.4,60.03035133,,,,,
82,0,82,0,5,328.207229,328.207229,0.0170677,-0.112037037,0.386111111,1,0,0,1.7460537,  'target'  ,Trial2,1,2023-09-28_19h55.47.142,Visual_Search_Exp,2022.2.4,60.03035133,,,,,
83,0,83,0,5,329.9741536,329.9741536,0.0171569,0.155555556,-0.277777778,1,0,0,1.9295311,  'target'  ,Trial2,1,2023-09-28_19h55.47.142,Visual_Search_Exp,2022.2.4,60.03035133,,,,,
84,0,84,0,5,331.9227414,331.9227414,0.0158002,0.323148148,-0.35,1,0,0,1.664433,  'target'  ,Trial2,1,2023-09-28_19h55.47.142,Visual_Search_Exp,2022.2.4,60.03035133,,,,,
85,0,85,0,5,341.1255921,341.1255921,0.018533,0.359259259,0.5,1,0,0,2.0784283,  'target'  ,Trial2,1,2023-09-28_19h55.47.142,Visual_Search_Exp,2022.2.4,60.03035133,,,,,
86,0,86,0,5,343.2239979,343.2239979,0.017081,0.077777778,-0.044444444,1,0,0,1.5629068,  'target'  ,Trial2,1,2023-09-28_19h55.47.142,Visual_Search_Exp,2022.2.4,60.03035133,,,,,
87,0,87,0,5,344.8078622,344.8078622,0.0172022,-0.439814815,0.109259259,1,0,0,1.7117129,  'target'  ,Trial2,1,2023-09-28_19h55.47.142,Visual_Search_Exp,2022.2.4,60.03035133,,,,,
88,0,88,0,5,346.5405718,346.5405718,0.0171845,-0.255555556,-0.286111111,1,0,0,1.6456353,  'target'  ,Trial2,1,2023-09-28_19h55.47.142,Visual_Search_Exp,2022.2.4,60.03035133,,,,,
89,0,89,0,5,348.2068263,348.2068263,0.0172167,0.225,-0.307407407,1,0,0,1.6301868,  'target'  ,Trial2,1,2023-09-28_19h55.47.142,Visual_Search_Exp,2022.2.4,60.03035133,,,,,
90,0,90,0,5,352.7076787,352.7076787,0.0171684,0.47037037,-0.459259259,1,0,0,1.8617018,  'target'  ,Trial2,1,2023-09-28_19h55.47.142,Visual_Search_Exp,2022.2.4,60.03035133,,,,,
91,0,91,0,5,357.0575119,357.0575119,0.0171076,-0.412037037,-0.081481481,1,0,0,1.5465479,  'target'  ,Trial2,1,2023-09-28_19h55.47.142,Visual_Search_Exp,2022.2.4,60.03035133,,,,,
92,0,92,0,5,358.6241026,358.6241026,0.0164641,-0.04537037,-0.455555556,1,0,0,1.7293642,  'target'  ,Trial2,1,2023-09-28_19h55.47.142,Visual_Search_Exp,2022.2.4,60.03035133,,,,,
93,0,93,0,5,362.1249976,362.1249976,0.0173197,0.3,0.426851852,1,0,0,1.8616021,  'target'  ,Trial2,1,2023-09-28_19h55.47.142,Visual_Search_Exp,2022.2.4,60.03035133,,,,,
94,0,94,0,5,368.5068929,368.5068929,0.0171876,0.016666667,0.086111111,1,0,0,1.5297279,  'target'  ,Trial2,1,2023-09-28_19h55.47.142,Visual_Search_Exp,2022.2.4,60.03035133,,,,,
95,0,95,0,5,374.7383272,374.7383272,0.0163589,-0.02037037,0.340740741,1,0,0,1.5311432,  'target'  ,Trial2,1,2023-09-28_19h55.47.142,Visual_Search_Exp,2022.2.4,60.03035133,,,,,
96,0,96,0,5,376.2907331,376.2907331,0.017897,-0.450925926,-0.19537037,1,0,0,1.8955683,  'target'  ,Trial2,1,2023-09-28_19h55.47.142,Visual_Search_Exp,2022.2.4,60.03035133,,,,,
97,0,97,0,5,378.207439,378.207439,0.0174095,-0.236111111,0.413888889,1,0,0,1.7123418,  'target'  ,Trial2,1,2023-09-28_19h55.47.142,Visual_Search_Exp,2022.2.4,60.03035133,,,,,
98,0,98,0,10,24.1424155,24.1424155,0.0410346,0.483333333,-0.063888889,1,0,0,1.5023281,  'target'  ,Trial2,1,2023-09-28_19h55.47.142,Visual_Search_Exp,2022.2.4,60.03035133,,,,,
99,0,99,0,10,25.6927958,25.6927958,0.0432178,0.393518519,0.35,1,0,0,2.1371778,  'target'  ,Trial2,1,2023-09-28_19h55.47.142,Visual_Search_Exp,2022.2.4,60.03035133,,,,,
100,0,100,0,10,27.876356,27.876356,0.0445658,-0.322222222,0.101851852,1,0,0,2.2352179,  'target'  ,Trial2,1,2023-09-28_19h55.47.142,Visual_Search_Exp,2022.2.4,60.03035133,,,,,
101,0,101,0,10,30.1639773,30.1639773,0.0460921,0.080555556,0.174074074,1,0,0,1.3662968,  'target'  ,Trial2,1,2023-09-28_19h55.47.142,Visual_Search_Exp,2022.2.4,60.03035133,,,,,
102,0,102,0,10,31.5837239,31.5837239,0.0477142,0.056481481,0.181481481,1,0,0,1.7626497,  'target'  ,Trial2,1,2023-09-28_19h55.47.142,Visual_Search_Exp,2022.2.4,60.03035133,,,,,
103,0,103,0,10,40.4804497,40.4804497,0.0455711,-0.084259259,0.275925926,1,0,0,1.0499216,  'target'  ,Trial2,1,2023-09-28_19h55.47.142,Visual_Search_Exp,2022.2.4,60.03035133,,,,,
104,0,104,0,10,45.3953229,45.3953229,0.0429775,0.219444444,0.389814815,1,0,0,1.7355928,  'target'  ,Trial2,1,2023-09-28_19h55.47.142,Visual_Search_Exp,2022.2.4,60.03035133,,,,,
105,0,105,0,10,48.4648135,48.4648135,0.0328772,0.1,-0.132407407,1,0,0,1.8461963,  'target'  ,Trial2,1,2023-09-28_19h55.47.142,Visual_Search_Exp,2022.2.4,60.03035133,,,,,
106,0,106,0,10,55.1295247,55.1295247,0.0328029,-0.018518519,0.033333333,1,0,0,1.5139482,  'target'  ,Trial2,1,2023-09-28_19h55.47.142,Visual_Search_Exp,2022.2.4,60.03035133,,,,,
107,0,107,0,10,59.8313646,59.8313646,0.0348111,0.114814815,0.003703704,1,0,0,1.46162,  'target'  ,Trial2,1,2023-09-28_19h55.47.142,Visual_Search_Exp,2022.2.4,60.03035133,,,,,
108,0,108,0,10,62.778862,62.778862,0.03244,-0.339814815,0.391666667,1,0,0,2.1312734,  'target'  ,Trial2,1,2023-09-28_19h55.47.142,Visual_Search_Exp,2022.2.4,60.03035133,,,,,
109,0,109,0,10,66.3455392,66.3455392,0.0320705,0.318518519,0.305555556,1,0,0,1.5804007,  'target'  ,Trial2,1,2023-09-28_19h55.47.142,Visual_Search_Exp,2022.2.4,60.03035133,,,,,
110,0,110,0,10,71.1625697,71.1625697,0.0323468,0.02962963,0.27037037,1,0,0,1.5141268,  'target'  ,Trial2,1,2023-09-28_19h55.47.142,Visual_Search_Exp,2022.2.4,60.03035133,,,,,
111,0,111,0,10,72.7111676,72.7111676,0.0318056,-0.293518519,0.006481481,1,0,0,1.7149361,  'target'  ,Trial2,1,2023-09-28_19h55.47.142,Visual_Search_Exp,2022.2.4,60.03035133,,,,,
112,0,112,0,10,74.4628749,74.4628749,0.0323648,-0.32037037,-0.425,1,0,0,2.4151422,  'target'  ,Trial2,1,2023-09-28_19h55.47.142,Visual_Search_Exp,2022.2.4,60.03035133,,,,,
113,0,113,0,10,82.1796116,82.1796116,0.0323043,-0.364814815,0.412962963,1,0,0,1.7649632,  'target'  ,Trial2,1,2023-09-28_19h55.47.142,Visual_Search_Exp,2022.2.4,60.03035133,,,,,
114,0,114,0,10,85.5129037,85.5129037,0.0324843,0.27962963,-0.144444444,1,0,0,2.013914,  'target'  ,Trial2,1,2023-09-28_19h55.47.142,Visual_Search_Exp,2022.2.4,60.03035133,,,,,
115,0,115,0,10,92.5930411,92.5930411,0.0313162,0.485185185,-0.357407407,1,0,0,1.7994502,  'target'  ,Trial2,1,2023-09-28_19h55.47.142,Visual_Search_Exp,2022.2.4,60.03035133,,,,,
116,0,116,0,10,94.4257894,94.4257894,0.030263,-0.210185185,0.237962963,1,0,0,2.0666003,  'target'  ,Trial2,1,2023-09-28_19h55.47.142,Visual_Search_Exp,2022.2.4,60.03035133,,,,,
117,0,117,0,10,100.0590501,100.0590501,0.0299889,-0.394444444,0.293518519,1,0,0,2.8167474,  'target'  ,Trial2,1,2023-09-28_19h55.47.142,Visual_Search_Exp,2022.2.4,60.03035133,,,,,
118,0,118,0,10,102.9117122,102.9117122,0.0323993,-0.367592593,0.019444444,1,0,0,1.5975849,  'target'  ,Trial2,1,2023-09-28_19h55.47.142,Visual_Search_Exp,2022.2.4,60.03035133,,,,,
119,0,119,0,10,104.5443513,104.5443513,0.031894,-0.355555556,-0.110185185,1,0,0,1.6140914,  'target'  ,Trial2,1,2023-09-28_19h55.47.142,Visual_Search_Exp,2022.2.4,60.03035133,,,,,
120,0,120,0,10,107.4142688,107.4142688,0.0342937,0.189814815,0.337962963,1,0,0,2.2271635,  'target'  ,Trial2,1,2023-09-28_19h55.47.142,Visual_Search_Exp,2022.2.4,60.03035133,,,,,
121,0,121,0,10,113.1675549,113.1675549,0.0363684,0.272222222,0.312037037,1,0,0,1.7446172,  'target'  ,Trial2,1,2023-09-28_19h55.47.142,Visual_Search_Exp,2022.2.4,60.03035133,,,,,
122,0,122,0,10,114.9445864,114.9445864,0.0316026,0.45,0.453703704,1,0,0,1.6978793,  'target'  ,Trial2,1,2023-09-28_19h55.47.142,Visual_Search_Exp,2022.2.4,60.03035133,,,,,
123,0,123,0,10,119.4434657,119.4434657,0.0314991,-0.325,-0.202777778,1,0,0,2.2812045,  'target'  ,Trial2,1,2023-09-28_19h55.47.142,Visual_Search_Exp,2022.2.4,60.03035133,,,,,
124,0,124,0,10,121.7607558,121.7607558,0.0325736,0.287037037,0.437962963,1,0,0,2.1652815,  'target'  ,Trial2,1,2023-09-28_19h55.47.142,Visual_Search_Exp,2022.2.4,60.03035133,,,,,
125,0,125,0,10,125.4776414,125.4776414,0.0317518,0.341666667,-0.105555556,1,0,0,1.3489448,  'target'  ,Trial2,1,2023-09-28_19h55.47.142,Visual_Search_Exp,2022.2.4,60.03035133,,,,,
126,0,126,0,10,132.0603597,132.0603597,0.0314787,0.067592593,0.150925926,1,0,0,1.6157137,  'target'  ,Trial2,1,2023-09-28_19h55.47.142,Visual_Search_Exp,2022.2.4,60.03035133,,,,,
127,0,127,0,10,133.7123138,133.7123138,0.0326502,0.042592593,0.257407407,1,0,0,1.5457956,  'target'  ,Trial2,1,2023-09-28_19h55.47.142,Visual_Search_Exp,2022.2.4,60.03035133,,,,,
128,0,128,0,10,135.2924997,135.2924997,0.0307663,-0.228703704,-0.351851852,1,0,0,1.9993598,  'target'  ,Trial2,1,2023-09-28_19h55.47.142,Visual_Search_Exp,2022.2.4,60.03035133,,,,,
129,0,129,0,10,137.33241,137.33241,0.0344802,-0.193518519,0.089814815,1,0,0,1.3463779,  'target'  ,Trial2,1,2023-09-28_19h55.47.142,Visual_Search_Exp,2022.2.4,60.03035133,,,,,
130,0,130,0,10,138.7107124,138.7107124,0.0318929,-0.471296296,-0.442592593,1,0,0,1.7807729,  'target'  ,Trial2,1,2023-09-28_19h55.47.142,Visual_Search_Exp,2022.2.4,60.03035133,,,,,
131,0,131,0,10,140.5276407,140.5276407,0.0320478,-0.183333333,0.456481481,1,0,0,1.9656728,  'target'  ,Trial2,1,2023-09-28_19h55.47.142,Visual_Search_Exp,2022.2.4,60.03035133,,,,,
132,0,132,0,10,144.3265223,144.3265223,0.0319642,-0.293518519,0.136111111,1,0,0,1.3991616,  'target'  ,Trial2,1,2023-09-28_19h55.47.142,Visual_Search_Exp,2022.2.4,60.03035133,,,,,
133,0,133,0,10,147.3265981,147.3265981,0.0316678,0.175925926,-0.483333333,1,0,0,2.1489892,  'target'  ,Trial2,1,2023-09-28_19h55.47.142,Visual_Search_Exp,2022.2.4,60.03035133,,,,,
134,0,134,0,10,149.5117886,149.5117886,0.0332406,-0.413888889,-0.45,1,0,0,2.1475117,  'target'  ,Trial2,1,2023-09-28_19h55.47.142,Visual_Search_Exp,2022.2.4,60.03035133,,,,,
135,0,135,0,10,153.4927448,153.4927448,0.0307368,0.100925926,0.209259259,1,0,0,1.3482083,  'target'  ,Trial2,1,2023-09-28_19h55.47.142,Visual_Search_Exp,2022.2.4,60.03035133,,,,,
136,0,136,0,10,154.8769844,154.8769844,0.0324836,0.448148148,0.233333333,1,0,0,2.2316875,  'target'  ,Trial2,1,2023-09-28_19h55.47.142,Visual_Search_Exp,2022.2.4,60.03035133,,,,,
137,0,137,0,10,157.1453778,157.1453778,0.0325591,0.183333333,0.5,1,0,0,2.430536,  'target'  ,Trial2,1,2023-09-28_19h55.47.142,Visual_Search_Exp,2022.2.4,60.03035133,,,,,
138,0,138,0,10,159.6080959,159.6080959,0.029788,-0.472222222,0.398148148,1,0,0,1.9505907,  'target'  ,Trial2,1,2023-09-28_19h55.47.142,Visual_Search_Exp,2022.2.4,60.03035133,,,,,
139,0,139,0,10,161.5944618,161.5944618,0.0322815,-0.112962963,-0.298148148,1,0,0,1.8293865,  'target'  ,Trial2,1,2023-09-28_19h55.47.142,Visual_Search_Exp,2022.2.4,60.03035133,,,,,
140,0,140,0,10,165.0106423,165.0106423,0.033015,-0.462037037,0.292592593,1,0,0,2.0642704,  'target'  ,Trial2,1,2023-09-28_19h55.47.142,Visual_Search_Exp,2022.2.4,60.03035133,,,,,
141,0,141,0,10,170.0603275,170.0603275,0.0316217,0.186111111,0.119444444,1,0,0,1.6481515,  'target'  ,Trial2,1,2023-09-28_19h55.47.142,Visual_Search_Exp,2022.2.4,60.03035133,,,,,
142,0,142,0,10,173.3436472,173.3436472,0.0321384,0.030555556,0.390740741,1,0,0,2.2639961,  'target'  ,Trial2,1,2023-09-28_19h55.47.142,Visual_Search_Exp,2022.2.4,60.03035133,,,,,
143,0,143,0,10,175.6429329,175.6429329,0.0322908,-0.130555556,-0.481481481,1,0,0,2.2330446,  'target'  ,Trial2,1,2023-09-28_19h55.47.142,Visual_Search_Exp,2022.2.4,60.03035133,,,,,
144,0,144,0,10,179.8240205,179.8240205,0.0300218,0.359259259,0.353703704,1,0,0,2.1836958,  'target'  ,Trial2,1,2023-09-28_19h55.47.142,Visual_Search_Exp,2022.2.4,60.03035133,,,,,
145,0,145,0,10,182.0430074,182.0430074,0.0320253,0.025925926,0.203703704,1,0,0,1.8143926,  'target'  ,Trial2,1,2023-09-28_19h55.47.142,Visual_Search_Exp,2022.2.4,60.03035133,,,,,
146,0,146,0,10,183.8926434,183.8926434,0.0322389,0.353703704,-0.1,1,0,0,1.9485579,  'target'  ,Trial2,1,2023-09-28_19h55.47.142,Visual_Search_Exp,2022.2.4,60.03035133,,,,,
147,0,147,0,10,185.8747405,185.8747405,0.0305687,-0.252777778,-0.312962963,1,0,0,1.5832331,  'target'  ,Trial2,1,2023-09-28_19h55.47.142,Visual_Search_Exp,2022.2.4,60.03035133,,,,,
148,0,148,0,10,189.5111604,189.5111604,0.0327999,-0.248148148,-0.250925926,1,0,0,1.7458903,  'target'  ,Trial2,1,2023-09-28_19h55.47.142,Visual_Search_Exp,2022.2.4,60.03035133,,,,,
149,0,149,0,10,191.2913984,191.2913984,0.0307685,-0.276851852,-0.034259259,1,0,0,1.549205,  'target'  ,Trial2,1,2023-09-28_19h55.47.142,Visual_Search_Exp,2022.2.4,60.03035133,,,,,
150,0,150,0,10,192.877031,192.877031,0.0323729,-0.015740741,-0.056481481,1,0,0,2.1306422,  'target'  ,Trial2,1,2023-09-28_19h55.47.142,Visual_Search_Exp,2022.2.4,60.03035133,,,,,
151,0,151,0,10,195.0432157,195.0432157,0.0323861,-0.307407407,0.496296296,1,0,0,2.681263,  'target'  ,Trial2,1,2023-09-28_19h55.47.142,Visual_Search_Exp,2022.2.4,60.03035133,,,,,
152,0,152,0,10,199.4099025,199.4099025,0.0320716,0.107407407,-0.099074074,1,0,0,1.3975156,  'target'  ,Trial2,1,2023-09-28_19h55.47.142,Visual_Search_Exp,2022.2.4,60.03035133,,,,,
153,0,153,0,10,212.6767538,212.6767538,0.0325516,-0.325925926,-0.030555556,1,0,0,1.9146891,  'target'  ,Trial2,1,2023-09-28_19h55.47.142,Visual_Search_Exp,2022.2.4,60.03035133,,,,,
154,0,154,0,10,214.6267988,214.6267988,0.0320719,0.12037037,-0.289814815,1,0,0,1.8144848,  'target'  ,Trial2,1,2023-09-28_19h55.47.142,Visual_Search_Exp,2022.2.4,60.03035133,,,,,
155,0,155,0,10,222.7084078,222.7084078,0.0316413,0.174074074,0.150925926,1,0,0,1.3984288,  'target'  ,Trial2,1,2023-09-28_19h55.47.142,Visual_Search_Exp,2022.2.4,60.03035133,,,,,
156,0,156,0,10,229.2246547,229.2246547,0.0444857,0.387037037,0.072222222,1,0,0,1.7854036,  'target'  ,Trial2,1,2023-09-28_19h55.47.142,Visual_Search_Exp,2022.2.4,60.03035133,,,,,
157,0,157,0,10,232.8416325,232.8416325,0.0316488,0.098148148,-0.000925926,1,0,0,1.6481283,  'target'  ,Trial2,1,2023-09-28_19h55.47.142,Visual_Search_Exp,2022.2.4,60.03035133,,,,,
158,0,158,0,10,234.5238854,234.5238854,0.0309033,0.499074074,-0.37962963,1,0,0,2.2176352,  'target'  ,Trial2,1,2023-09-28_19h55.47.142,Visual_Search_Exp,2022.2.4,60.03035133,,,,,
159,0,159,0,10,238.5758749,238.5758749,0.0453953,-0.312037037,0.025925926,1,0,0,1.5339556,  'target'  ,Trial2,1,2023-09-28_19h55.47.142,Visual_Search_Exp,2022.2.4,60.03035133,,,,,
160,0,160,0,10,240.1428498,240.1428498,0.0325734,0.088888889,-0.006481481,1,0,0,1.5633681,  'target'  ,Trial2,1,2023-09-28_19h55.47.142,Visual_Search_Exp,2022.2.4,60.03035133,,,,,
161,0,161,0,10,243.291125,243.291125,0.032057,-0.136111111,0.335185185,1,0,0,2.4156277,  'target'  ,Trial2,1,2023-09-28_19h55.47.142,Visual_Search_Exp,2022.2.4,60.03035133,,,,,
162,0,162,0,10,245.7420749,245.7420749,0.0322031,0.034259259,-0.384259259,1,0,0,2.1805435,  'target'  ,Trial2,1,2023-09-28_19h55.47.142,Visual_Search_Exp,2022.2.4,60.03035133,,,,,
163,0,163,0,10,247.9563839,247.9563839,0.0304874,-0.438888889,0.087037037,1,0,0,1.7672456,  'target'  ,Trial2,1,2023-09-28_19h55.47.142,Visual_Search_Exp,2022.2.4,60.03035133,,,,,
164,0,164,0,10,249.7588516,249.7588516,0.031419,-0.177777778,-0.450925926,1,0,0,1.7811913,  'target'  ,Trial2,1,2023-09-28_19h55.47.142,Visual_Search_Exp,2022.2.4,60.03035133,,,,,
165,0,165,0,10,254.9746211,254.9746211,0.0307279,0.264814815,-0.060185185,1,0,0,1.7648588,  'target'  ,Trial2,1,2023-09-28_19h55.47.142,Visual_Search_Exp,2022.2.4,60.03035133,,,,,
166,0,166,0,10,256.7774498,256.7774498,0.0330699,0.116666667,0.476851852,1,0,0,1.9449436,  'target'  ,Trial2,1,2023-09-28_19h55.47.142,Visual_Search_Exp,2022.2.4,60.03035133,,,,,
167,0,167,0,10,260.607181,260.607181,0.0305068,0.483333333,-0.25462963,1,0,0,1.8334173,  'target'  ,Trial2,1,2023-09-28_19h55.47.142,Visual_Search_Exp,2022.2.4,60.03035133,,,,,
168,0,168,0,10,266.1286565,266.1286565,0.0327176,-0.403703704,-0.318518519,1,0,0,1.6800397,  'target'  ,Trial2,1,2023-09-28_19h55.47.142,Visual_Search_Exp,2022.2.4,60.03035133,,,,,
169,0,169,0,10,267.8421835,267.8421835,0.0315841,0.343518519,0.181481481,1,0,0,2.1646288,  'target'  ,Trial2,1,2023-09-28_19h55.47.142,Visual_Search_Exp,2022.2.4,60.03035133,,,,,
170,0,170,0,10,272.0075464,272.0075464,0.0306274,0.443518519,0.065740741,1,0,0,2.1164225,  'target'  ,Trial2,1,2023-09-28_19h55.47.142,Visual_Search_Exp,2022.2.4,60.03035133,,,,,
171,0,171,0,10,274.1592614,274.1592614,0.0317299,0.452777778,0.210185185,1,0,0,1.5807799,  'target'  ,Trial2,1,2023-09-28_19h55.47.142,Visual_Search_Exp,2022.2.4,60.03035133,,,,,
172,0,172,0,10,277.924583,277.924583,0.0316747,0.455555556,0.298148148,1,0,0,1.6818701,  'target'  ,Trial2,1,2023-09-28_19h55.47.142,Visual_Search_Exp,2022.2.4,60.03035133,,,,,
173,0,173,0,10,281.6572675,281.6572675,0.0312325,0.433333333,-0.130555556,1,0,0,1.7324517,  'target'  ,Trial2,1,2023-09-28_19h55.47.142,Visual_Search_Exp,2022.2.4,60.03035133,,,,,
174,0,174,0,10,283.4240785,283.4240785,0.0315677,0.177777778,-0.035185185,1,0,0,1.9656852,  'target'  ,Trial2,1,2023-09-28_19h55.47.142,Visual_Search_Exp,2022.2.4,60.03035133,,,,,
175,0,175,0,10,291.4768646,291.4768646,0.0325301,0.433333333,-0.14537037,1,0,0,2.280315,  'target'  ,Trial2,1,2023-09-28_19h55.47.142,Visual_Search_Exp,2022.2.4,60.03035133,,,,,
176,0,176,0,10,296.0265263,296.0265263,0.0331011,0.5,0.325925926,1,0,0,2.1967006,  'target'  ,Trial2,1,2023-09-28_19h55.47.142,Visual_Search_Exp,2022.2.4,60.03035133,,,,,
177,0,177,0,10,300.6910126,300.6910126,0.0312423,-0.017592593,0.432407407,1,0,0,1.8321557,  'target'  ,Trial2,1,2023-09-28_19h55.47.142,Visual_Search_Exp,2022.2.4,60.03035133,,,,,
178,0,178,0,10,306.239735,306.239735,0.0308387,0.211111111,0.364814815,1,0,0,1.8168929,  'target'  ,Trial2,1,2023-09-28_19h55.47.142,Visual_Search_Exp,2022.2.4,60.03035133,,,,,
179,0,179,0,10,308.0916218,308.0916218,0.031674,-0.086111111,-0.317592593,1,0,0,1.9146025,  'target'  ,Trial2,1,2023-09-28_19h55.47.142,Visual_Search_Exp,2022.2.4,60.03035133,,,,,
180,0,180,0,10,311.9083118,311.9083118,0.031907,-0.088888889,0.058333333,1,0,0,1.8814399,  'target'  ,Trial2,1,2023-09-28_19h55.47.142,Visual_Search_Exp,2022.2.4,60.03035133,,,,,
181,0,181,0,10,315.3896996,315.3896996,0.0310988,0.496296296,0.406481481,1,0,0,1.4988039,  'target'  ,Trial2,1,2023-09-28_19h55.47.142,Visual_Search_Exp,2022.2.4,60.03035133,,,,,
182,0,182,0,10,316.9252011,316.9252011,0.032155,-0.12962963,-0.125,1,0,0,1.5475985,  'target'  ,Trial2,1,2023-09-28_19h55.47.142,Visual_Search_Exp,2022.2.4,60.03035133,,,,,
183,0,183,0,10,318.5063538,318.5063538,0.0304192,-0.341666667,-0.350925926,1,0,0,1.6496141,  'target'  ,Trial2,1,2023-09-28_19h55.47.142,Visual_Search_Exp,2022.2.4,60.03035133,,,,,
184,0,184,0,10,323.4563158,323.4563158,0.0312714,-0.142592593,-0.35,1,0,0,1.5831992,  'target'  ,Trial2,1,2023-09-28_19h55.47.142,Visual_Search_Exp,2022.2.4,60.03035133,,,,,
185,0,185,0,10,325.0741485,325.0741485,0.0314854,-0.146296296,-0.422222222,1,0,0,1.7483589,  'target'  ,Trial2,1,2023-09-28_19h55.47.142,Visual_Search_Exp,2022.2.4,60.03035133,,,,,
186,0,186,0,10,326.8568175,326.8568175,0.0310428,-0.259259259,-0.317592593,1,0,0,1.332066,  'target'  ,Trial2,1,2023-09-28_19h55.47.142,Visual_Search_Exp,2022.2.4,60.03035133,,,,,
187,0,187,0,10,333.6253919,333.6253919,0.0330959,0.144444444,-0.44537037,1,0,0,1.7484229,  'target'  ,Trial2,1,2023-09-28_19h55.47.142,Visual_Search_Exp,2022.2.4,60.03035133,,,,,
188,0,188,0,10,335.4080178,335.4080178,0.0311165,0.362962963,0.032407407,1,0,0,1.6967069,  'target'  ,Trial2,1,2023-09-28_19h55.47.142,Visual_Search_Exp,2022.2.4,60.03035133,,,,,
189,0,189,0,10,337.1390426,337.1390426,0.0311748,0.223148148,-0.347222222,1,0,0,1.8163837,  'target'  ,Trial2,1,2023-09-28_19h55.47.142,Visual_Search_Exp,2022.2.4,60.03035133,,,,,
190,0,190,0,10,338.9922824,338.9922824,0.0329117,-0.398148148,0.352777778,1,0,0,2.1130648,  'target'  ,Trial2,1,2023-09-28_19h55.47.142,Visual_Search_Exp,2022.2.4,60.03035133,,,,,
191,0,191,0,10,349.873734,349.873734,0.0317883,0.003703704,-0.072222222,1,0,0,1.4661239,  'target'  ,Trial2,1,2023-09-28_19h55.47.142,Visual_Search_Exp,2022.2.4,60.03035133,,,,,
192,0,192,0,10,351.3750913,351.3750913,0.0320534,-0.47037037,-0.097222222,1,0,0,1.313822,  'target'  ,Trial2,1,2023-09-28_19h55.47.142,Visual_Search_Exp,2022.2.4,60.03035133,,,,,
193,0,193,0,10,354.617825,354.617825,0.0396945,-0.158333333,0.382407407,1,0,0,2.4248112,  'target'  ,Trial2,1,2023-09-28_19h55.47.142,Visual_Search_Exp,2022.2.4,60.03035133,,,,,
194,0,194,0,10,360.3904142,360.3904142,0.0322511,-0.301851852,-0.482407407,1,0,0,1.7162702,  'target'  ,Trial2,1,2023-09-28_19h55.47.142,Visual_Search_Exp,2022.2.4,60.03035133,,,,,
195,0,195,0,10,364.0234799,364.0234799,0.0321067,-0.239814815,-0.032407407,1,0,0,2.2649972,  'target'  ,Trial2,1,2023-09-28_19h55.47.142,Visual_Search_Exp,2022.2.4,60.03035133,,,,,
196,0,196,0,10,366.3211469,366.3211469,0.0297417,0.207407407,0.47962963,1,0,0,2.1669452,  'target'  ,Trial2,1,2023-09-28_19h55.47.142,Visual_Search_Exp,2022.2.4,60.03035133,,,,,
197,0,197,0,10,370.0740142,370.0740142,0.0318227,-0.118518519,0.240740741,1,0,0,1.4140749,  'target'  ,Trial2,1,2023-09-28_19h55.47.142,Visual_Search_Exp,2022.2.4,60.03035133,,,,,
198,0,198,0,10,371.5230603,371.5230603,0.0316275,-0.17037037,0.058333333,1,0,0,1.4313475,  'target'  ,Trial2,1,2023-09-28_19h55.47.142,Visual_Search_Exp,2022.2.4,60.03035133,,,,,
199,0,199,0,10,372.9876943,372.9876943,0.0304311,-0.272222222,0.091666667,1,0,0,1.7331357,  'target'  ,Trial2,1,2023-09-28_19h55.47.142,Visual_Search_Exp,2022.2.4,60.03035133,,,,,
