trials.thisRepN,trials.thisTrialN,trials.thisN,trials.thisIndex,num_distr,fixation.started,target.started,mouse.started,mouse.x,mouse.y,mouse.leftButton,mouse.midButton,mouse.rightButton,mouse.time,mouse.clicked_name,participant,session,date,expName,psychopyVersion,frameRate,,,,
2,0,2,0,5,30.4469555,30.4469555,0.0554181,0.33,0.151428571,1,0,0,1.9662979,  'target'  ,56194,1,2023-09-28_11h53.48.205,Tutorial_3,2023.1.3,59.93953299,,,,
3,0,3,0,5,32.4964886,32.4964886,0.0596524,0.131428571,-0.185714286,1,0,0,1.9611662,  'target'  ,56194,1,2023-09-28_11h53.48.205,Tutorial_3,2023.1.3,59.93953299,,,,
5,0,5,0,5,36.4641318,36.4641318,0.0658768,0.028571429,-0.128571429,1,0,0,1.958612,  'target'  ,56194,1,2023-09-28_11h53.48.205,Tutorial_3,2023.1.3,59.93953299,,,,
6,0,6,0,5,38.47727,38.47727,0.061072,0.475714286,-0.38,1,0,0,2.1400023,  'target'  ,56194,1,2023-09-28_11h53.48.205,Tutorial_3,2023.1.3,59.93953299,,,,
8,0,8,0,5,43.9085763,43.9085763,0.06076,0.365714286,0.05,1,0,0,2.5429882,    ,56194,1,2023-09-28_11h53.48.205,Tutorial_3,2023.1.3,59.93953299,,,,
9,0,9,0,5,46.5074758,46.5074758,0.0534533,-0.338571429,-0.21,1,0,0,1.9885207,  'target'  ,56194,1,2023-09-28_11h53.48.205,Tutorial_3,2023.1.3,59.93953299,,,,
11,0,11,0,5,51.1904465,51.1904465,0.0733024,-0.082857143,0.25,1,0,0,1.5091102,  'target'  ,56194,1,2023-09-28_11h53.48.205,Tutorial_3,2023.1.3,59.93953299,,,,
14,0,14,0,5,57.1545849,57.1545849,0.0469208,0.294285714,-0.257142857,1,0,0,1.3061508,  'target'  ,56194,1,2023-09-28_11h53.48.205,Tutorial_3,2023.1.3,59.93953299,,,,
15,0,15,0,5,58.5891692,58.5891692,0.1003933,0.238571429,0.194285714,1,0,0,1.8378172,  'target'  ,56194,1,2023-09-28_11h53.48.205,Tutorial_3,2023.1.3,59.93953299,,,,
20,0,20,0,5,68.7340212,68.7340212,0.0340797,-0.365714286,-0.237142857,1,0,0,4.4062321,  'target'  ,56194,1,2023-09-28_11h53.48.205,Tutorial_3,2023.1.3,59.93953299,,avrg,avrg 5,avrg 10
23,0,23,0,5,78.1658704,78.1658704,0.0636919,-0.054285714,-0.012857143,1,0,0,1.3768377,  'target'  ,56194,1,2023-09-28_11h53.48.205,Tutorial_3,2023.1.3,59.93953299,,2.560807248,2.320518601,2.810903594
24,0,24,0,5,79.5963508,79.5963508,0.0588057,-0.07,0.282857143,1,0,0,1.6601658,  'target'  ,56194,1,2023-09-28_11h53.48.205,Tutorial_3,2023.1.3,59.93953299,,,,
26,0,26,0,5,83.7626589,83.7626589,0.0644443,-0.374285714,-0.4,1,0,0,1.7562795,  'target'  ,56194,1,2023-09-28_11h53.48.205,Tutorial_3,2023.1.3,59.93953299,,,,
28,0,28,0,5,87.2628134,87.2628134,0.103063,-0.108571429,0.092857143,1,0,0,1.5848929,  'target'  ,56194,1,2023-09-28_11h53.48.205,Tutorial_3,2023.1.3,59.93953299,,,,
30,0,30,0,5,91.5947035,91.5947035,0.063397,-0.035714286,-0.005714286,1,0,0,4.1062312,  'target'  ,56194,1,2023-09-28_11h53.48.205,Tutorial_3,2023.1.3,59.93953299,,,,
33,0,33,0,5,101.1558434,101.1558434,0.060626,0.195714286,0.012857143,1,0,0,2.0737339,  'target'  ,56194,1,2023-09-28_11h53.48.205,Tutorial_3,2023.1.3,59.93953299,,,,
34,0,34,0,5,103.305997,103.305997,0.0605483,-0.161428571,-0.187142857,1,0,0,1.3608323,  'target'  ,56194,1,2023-09-28_11h53.48.205,Tutorial_3,2023.1.3,59.93953299,,,,
35,0,35,0,5,104.7385371,104.7385371,0.0602893,0.038571429,-0.017142857,1,0,0,1.4273598,  'target'  ,56194,1,2023-09-28_11h53.48.205,Tutorial_3,2023.1.3,59.93953299,,,,
36,0,36,0,5,106.238008,106.238008,0.0639834,0.234285714,0.261428571,1,0,0,1.5551152,    ,56194,1,2023-09-28_11h53.48.205,Tutorial_3,2023.1.3,59.93953299,,,,
37,0,37,0,5,107.8388177,107.8388177,0.0317187,-0.397142857,0.417142857,1,0,0,1.3674524,  'target'  ,56194,1,2023-09-28_11h53.48.205,Tutorial_3,2023.1.3,59.93953299,,,,
38,0,38,0,5,109.2703018,109.2703018,0.0579309,0.075714286,0.075714286,1,0,0,2.1944694,  'target'  ,56194,1,2023-09-28_11h53.48.205,Tutorial_3,2023.1.3,59.93953299,,,,
40,0,40,0,5,114.0853068,114.0853068,0.0652567,0.041428571,0.307142857,1,0,0,2.4730276,  'target'  ,56194,1,2023-09-28_11h53.48.205,Tutorial_3,2023.1.3,59.93953299,,,,
41,0,41,0,5,116.6175201,116.6175201,0.0608745,0.231428571,0.102857143,1,0,0,2.877264,  'target'  ,56194,1,2023-09-28_11h53.48.205,Tutorial_3,2023.1.3,59.93953299,,,,
42,0,42,0,5,119.5668746,119.5668746,0.061063,-0.321428571,0.124285714,1,0,0,1.7930963,  'target'  ,56194,1,2023-09-28_11h53.48.205,Tutorial_3,2023.1.3,59.93953299,,,,
43,0,43,0,5,121.4326703,121.4326703,0.0641812,-0.42,-0.012857143,1,0,0,2.4404494,  'target'  ,56194,1,2023-09-28_11h53.48.205,Tutorial_3,2023.1.3,59.93953299,,,,
45,0,45,0,5,128.8471447,128.8471447,0.0630422,0.055714286,-0.122857143,1,0,0,3.9394616,  'target'  ,56194,1,2023-09-28_11h53.48.205,Tutorial_3,2023.1.3,59.93953299,,,,
46,0,46,0,5,132.8473508,132.8473508,0.0476452,-0.341428571,0.058571429,1,0,0,2.6592915,  'target'  ,56194,1,2023-09-28_11h53.48.205,Tutorial_3,2023.1.3,59.93953299,,,,
47,0,47,0,5,135.5778964,135.5778964,0.0616934,0.275714286,0.288571429,1,0,0,1.8580154,  'target'  ,56194,1,2023-09-28_11h53.48.205,Tutorial_3,2023.1.3,59.93953299,,,,
50,0,50,0,5,143.4766812,143.4766812,0.0626827,-0.132857143,0.03,1,0,0,1.6257946,  'target'  ,56194,1,2023-09-28_11h53.48.205,Tutorial_3,2023.1.3,59.93953299,,,,
51,0,51,0,5,145.1758833,145.1758833,0.0643749,-0.495714286,-0.218571429,1,0,0,1.7228577,  'target'  ,56194,1,2023-09-28_11h53.48.205,Tutorial_3,2023.1.3,59.93953299,,,,
54,0,54,0,5,152.9383095,152.9383095,0.0494501,-0.457142857,0.33,1,0,0,0.2025387,    ,56194,1,2023-09-28_11h53.48.205,Tutorial_3,2023.1.3,59.93953299,,,,
58,0,58,0,5,163.0866748,163.0866748,0.0643839,0.278571429,-0.375714286,1,0,0,1.8071985,  'target'  ,56194,1,2023-09-28_11h53.48.205,Tutorial_3,2023.1.3,59.93953299,,,,
60,0,60,0,5,168.3188286,168.3188286,0.0630036,0.078571429,0.39,1,0,0,2.5920342,  'target'  ,56194,1,2023-09-28_11h53.48.205,Tutorial_3,2023.1.3,59.93953299,,,,
62,0,62,0,5,173.9484479,173.9484479,0.0621872,0.444285714,0.424285714,1,0,0,3.2561803,  'target'  ,56194,1,2023-09-28_11h53.48.205,Tutorial_3,2023.1.3,59.93953299,,,,
63,0,63,0,5,177.2655871,177.2655871,0.0623722,0.341428571,0.3,1,0,0,3.6930835,  'target'  ,56194,1,2023-09-28_11h53.48.205,Tutorial_3,2023.1.3,59.93953299,,,,
65,0,65,0,5,184.9613712,184.9613712,0.0632993,-0.19,0.362857143,1,0,0,2.210428,  'target'  ,56194,1,2023-09-28_11h53.48.205,Tutorial_3,2023.1.3,59.93953299,,,,
66,0,66,0,5,187.2268001,187.2268001,0.0583823,-0.221428571,0.385714286,1,0,0,1.4133888,  'target'  ,56194,1,2023-09-28_11h53.48.205,Tutorial_3,2023.1.3,59.93953299,,,,
67,0,67,0,5,188.7101869,188.7101869,0.0622381,-0.198571429,0.138571429,1,0,0,1.7224632,  'target'  ,56194,1,2023-09-28_11h53.48.205,Tutorial_3,2023.1.3,59.93953299,,,,
68,0,68,0,5,190.5277906,190.5277906,0.0647361,0.227142857,0.054285714,1,0,0,2.7424131,  'target'  ,56194,1,2023-09-28_11h53.48.205,Tutorial_3,2023.1.3,59.93953299,,,,
69,0,69,0,5,193.3257606,193.3257606,0.06193,0.241428571,-0.427142857,1,0,0,4.0225921,  'target'  ,56194,1,2023-09-28_11h53.48.205,Tutorial_3,2023.1.3,59.93953299,,,,
70,0,70,0,5,197.4236805,197.4236805,0.0625667,0.485714286,0.47,1,0,0,4.2749789,  'target'  ,56194,1,2023-09-28_11h53.48.205,Tutorial_3,2023.1.3,59.93953299,,,,
75,0,75,0,5,211.7689943,211.7689943,0.0633743,-0.248571429,-0.474285714,1,0,0,2.8085265,  'target'  ,56194,1,2023-09-28_11h53.48.205,Tutorial_3,2023.1.3,59.93953299,,,,
77,0,77,0,5,216.8339262,216.8339262,0.0605904,0.321428571,0.067142857,1,0,0,5.3258004,  'target'  ,56194,1,2023-09-28_11h53.48.205,Tutorial_3,2023.1.3,59.93953299,,,,
81,0,81,0,5,230.7126478,230.7126478,0.063888,0.297142857,-0.262857143,1,0,0,3.4903151,  'target'  ,56194,1,2023-09-28_11h53.48.205,Tutorial_3,2023.1.3,59.93953299,,,,
84,0,84,0,5,240.4260226,240.4260226,0.062061,0.081428571,-0.267142857,1,0,0,2.8925368,  'target'  ,56194,1,2023-09-28_11h53.48.205,Tutorial_3,2023.1.3,59.93953299,,,,
85,0,85,0,5,243.374654,243.374654,0.0644518,-0.438571429,-0.27,1,0,0,1.6902582,  'target'  ,56194,1,2023-09-28_11h53.48.205,Tutorial_3,2023.1.3,59.93953299,,,,
87,0,87,0,5,247.7249726,247.7249726,0.0560565,-0.417142857,-0.121428571,1,0,0,1.5187382,  'target'  ,56194,1,2023-09-28_11h53.48.205,Tutorial_3,2023.1.3,59.93953299,,,,
90,0,90,0,5,257.1203869,257.1203869,0.0636279,-0.112857143,0.247142857,1,0,0,3.1905787,  'target'  ,56194,1,2023-09-28_11h53.48.205,Tutorial_3,2023.1.3,59.93953299,,,,
93,0,93,0,5,263.9863218,263.9863218,0.0624614,0.234285714,-0.43,1,0,0,2.5093168,    ,56194,1,2023-09-28_11h53.48.205,Tutorial_3,2023.1.3,59.93953299,,,,
94,0,94,0,5,266.5335039,266.5335039,0.0488828,-0.261428571,0.254285714,1,0,0,3.2193061,  'target'  ,56194,1,2023-09-28_11h53.48.205,Tutorial_3,2023.1.3,59.93953299,,,,
97,0,97,0,5,279.8309441,279.8309441,0.0634611,-0.29,-0.45,1,0,0,2.827066,  'target'  ,56194,1,2023-09-28_11h53.48.205,Tutorial_3,2023.1.3,59.93953299,,,,
100,0,100,0,5,290.0595917,290.0595917,0.0625799,0.388571429,-0.012857143,1,0,0,2.2103082,  'target'  ,56194,1,2023-09-28_11h53.48.205,Tutorial_3,2023.1.3,59.93953299,,,,
101,0,101,0,5,292.3600338,292.3600338,0.0679958,-0.145714286,0.255714286,1,0,0,1.4154015,  'target'  ,56194,1,2023-09-28_11h53.48.205,Tutorial_3,2023.1.3,59.93953299,,,,
102,0,102,0,5,293.824561,293.824561,0.0611142,-0.02,0.432857143,1,0,0,2.1585804,  'target'  ,56194,1,2023-09-28_11h53.48.205,Tutorial_3,2023.1.3,59.93953299,,,,
104,0,104,0,5,301.7407912,301.7407912,0.0562133,-0.111428571,-0.292857143,1,0,0,2.2646497,    ,56194,1,2023-09-28_11h53.48.205,Tutorial_3,2023.1.3,59.93953299,,,,
105,0,105,0,5,304.071342,304.071342,0.0592639,-0.088571429,-0.085714286,1,0,0,1.598913,  'target'  ,56194,1,2023-09-28_11h53.48.205,Tutorial_3,2023.1.3,59.93953299,,,,
107,0,107,0,5,308.2218615,308.2218615,0.0636438,0.121428571,0.437142857,1,0,0,2.1559316,  'target'  ,56194,1,2023-09-28_11h53.48.205,Tutorial_3,2023.1.3,59.93953299,,,,
108,0,108,0,5,310.4557154,310.4557154,0.091581,0.44,0.322857143,1,0,0,2.015089,  'target'  ,56194,1,2023-09-28_11h53.48.205,Tutorial_3,2023.1.3,59.93953299,,,,
109,0,109,0,5,312.5011865,312.5011865,0.0481474,-0.488571429,0.112857143,1,0,0,1.8735734,  'target'  ,56194,1,2023-09-28_11h53.48.205,Tutorial_3,2023.1.3,59.93953299,,,,
111,0,111,0,5,317.2850142,317.2850142,0.0472324,0.298571429,0.121428571,1,0,0,2.2075371,  'target'  ,56194,1,2023-09-28_11h53.48.205,Tutorial_3,2023.1.3,59.93953299,,,,
112,0,112,0,5,319.5490925,319.5490925,0.0474976,0.42,0.38,1,0,0,1.7905456,  'target'  ,56194,1,2023-09-28_11h53.48.205,Tutorial_3,2023.1.3,59.93953299,,,,
113,0,113,0,5,321.4152169,321.4152169,0.0640267,-0.234285714,0.187142857,1,0,0,1.5090219,  'target'  ,56194,1,2023-09-28_11h53.48.205,Tutorial_3,2023.1.3,59.93953299,,,,
114,0,114,0,5,322.9814529,322.9814529,0.0503188,-0.13,-0.197142857,1,0,0,2.4363542,  'target'  ,56194,1,2023-09-28_11h53.48.205,Tutorial_3,2023.1.3,59.93953299,,,,
117,0,117,0,5,329.7288225,329.7288225,0.0405586,-0.362857143,0.45,1,0,0,2.7124577,  'target'  ,56194,1,2023-09-28_11h53.48.205,Tutorial_3,2023.1.3,59.93953299,,,,
118,0,118,0,5,332.5130368,332.5130368,0.0603723,0.298571429,0.202857143,1,0,0,2.1918729,  'target'  ,56194,1,2023-09-28_11h53.48.205,Tutorial_3,2023.1.3,59.93953299,,,,
120,0,120,0,5,336.7454592,336.7454592,0.0641343,-0.024285714,0.371428571,1,0,0,1.9737886,  'target'  ,56194,1,2023-09-28_11h53.48.205,Tutorial_3,2023.1.3,59.93953299,,,,
124,0,124,0,5,346.3750016,346.3750016,0.0662573,0.135714286,0.047142857,1,0,0,1.8723841,  'target'  ,56194,1,2023-09-28_11h53.48.205,Tutorial_3,2023.1.3,59.93953299,,,,
127,0,127,0,5,353.8210336,353.8210336,0.0628718,0.391428571,0.47,1,0,0,2.6399325,  'target'  ,56194,1,2023-09-28_11h53.48.205,Tutorial_3,2023.1.3,59.93953299,,,,
128,0,128,0,5,356.5032351,356.5032351,0.0323296,0.462857143,0.204285714,1,0,0,1.8983148,  'target'  ,56194,1,2023-09-28_11h53.48.205,Tutorial_3,2023.1.3,59.93953299,,,,
129,0,129,0,5,358.4696357,358.4696357,0.062904,0.332857143,-0.167142857,1,0,0,2.8733893,  'target'  ,56194,1,2023-09-28_11h53.48.205,Tutorial_3,2023.1.3,59.93953299,,,,
130,0,130,0,5,361.4366973,361.4366973,0.0649217,0.37,-0.437142857,1,0,0,2.1195197,  'target'  ,56194,1,2023-09-28_11h53.48.205,Tutorial_3,2023.1.3,59.93953299,,,,
132,0,132,0,5,367.4821704,367.4821704,0.0488403,-0.445714286,0.401428571,1,0,0,3.6824944,  'target'  ,56194,1,2023-09-28_11h53.48.205,Tutorial_3,2023.1.3,59.93953299,,,,
141,0,141,0,5,397.9889358,397.9889358,0.0527252,-0.181428571,-0.334285714,1,0,0,3.4684129,  'target'  ,56194,1,2023-09-28_11h53.48.205,Tutorial_3,2023.1.3,59.93953299,,,,
142,0,142,0,5,401.5397689,401.5397689,0.0589214,0.417142857,-0.424285714,1,0,0,2.7329243,  'target'  ,56194,1,2023-09-28_11h53.48.205,Tutorial_3,2023.1.3,59.93953299,,,,
143,0,143,0,5,404.3373521,404.3373521,0.0577355,-0.267142857,0.064285714,1,0,0,2.0277875,  'target'  ,56194,1,2023-09-28_11h53.48.205,Tutorial_3,2023.1.3,59.93953299,,,,
144,0,144,0,5,406.4365001,406.4365001,0.0614399,-0.088571429,0.151428571,1,0,0,1.8908274,  'target'  ,56194,1,2023-09-28_11h53.48.205,Tutorial_3,2023.1.3,59.93953299,,,,
145,0,145,0,5,408.4040465,408.4040465,0.0558899,-0.332857143,-0.321428571,1,0,0,2.4480343,  'target'  ,56194,1,2023-09-28_11h53.48.205,Tutorial_3,2023.1.3,59.93953299,,,,
146,0,146,0,5,410.9349399,410.9349399,0.0632095,-0.421428571,0.02,1,0,0,1.7426099,  'target'  ,56194,1,2023-09-28_11h53.48.205,Tutorial_3,2023.1.3,59.93953299,,,,
147,0,147,0,5,412.7344602,412.7344602,0.0528074,0.001428571,-0.118571429,1,0,0,3.1027735,  'target'  ,56194,1,2023-09-28_11h53.48.205,Tutorial_3,2023.1.3,59.93953299,,,,
152,0,152,0,5,426.6980296,426.6980296,0.0666111,-0.45,0.42,1,0,0,1.9216833,  'target'  ,56194,1,2023-09-28_11h53.48.205,Tutorial_3,2023.1.3,59.93953299,,,,
153,0,153,0,5,428.6794643,428.6794643,0.0653089,0.385714286,0.424285714,1,0,0,3.0553248,  'target'  ,56194,1,2023-09-28_11h53.48.205,Tutorial_3,2023.1.3,59.93953299,,,,
159,0,159,0,5,442.9244672,442.9244672,0.0628371,0.425714286,-0.337142857,1,0,0,2.0454379,  'target'  ,56194,1,2023-09-28_11h53.48.205,Tutorial_3,2023.1.3,59.93953299,,,,
164,0,164,0,5,456.3860235,456.3860235,0.0590447,-0.148571429,0.342857143,1,0,0,1.7290953,  'target'  ,56194,1,2023-09-28_11h53.48.205,Tutorial_3,2023.1.3,59.93953299,,,,
165,0,165,0,5,458.2033487,458.2033487,0.0628975,0.197142857,-0.307142857,1,0,0,3.5247985,  'target'  ,56194,1,2023-09-28_11h53.48.205,Tutorial_3,2023.1.3,59.93953299,,,,
168,0,168,0,5,468.2824548,468.2824548,0.0632208,0.094285714,-0.427142857,1,0,0,2.5413133,  'target'  ,56194,1,2023-09-28_11h53.48.205,Tutorial_3,2023.1.3,59.93953299,,,,
169,0,169,0,5,470.8831653,470.8831653,0.0507817,-0.3,-0.287142857,1,0,0,1.7557683,  'target'  ,56194,1,2023-09-28_11h53.48.205,Tutorial_3,2023.1.3,59.93953299,,,,
170,0,170,0,5,472.7324873,472.7324873,0.0626692,0.13,-0.354285714,1,0,0,2.4729053,  'target'  ,56194,1,2023-09-28_11h53.48.205,Tutorial_3,2023.1.3,59.93953299,,,,
171,0,171,0,5,475.2636153,475.2636153,0.0594106,0.23,0.132857143,1,0,0,2.9607186,  'target'  ,56194,1,2023-09-28_11h53.48.205,Tutorial_3,2023.1.3,59.93953299,,,,
172,0,172,0,5,478.3125158,478.3125158,0.0643466,0.151428571,-0.41,1,0,0,2.5907152,  'target'  ,56194,1,2023-09-28_11h53.48.205,Tutorial_3,2023.1.3,59.93953299,,,,
177,0,177,0,5,491.7574753,491.7574753,0.0624418,0.325714286,-0.171428571,1,0,0,1.4584624,  'target'  ,56194,1,2023-09-28_11h53.48.205,Tutorial_3,2023.1.3,59.93953299,,,,
178,0,178,0,5,493.3087123,493.3087123,0.0625584,0.142857143,-0.055714286,1,0,0,2.6450523,  'target'  ,56194,1,2023-09-28_11h53.48.205,Tutorial_3,2023.1.3,59.93953299,,,,
179,0,179,0,5,496.0246442,496.0246442,0.0635176,0.407142857,0.275714286,1,0,0,2.325415,  'target'  ,56194,1,2023-09-28_11h53.48.205,Tutorial_3,2023.1.3,59.93953299,,,,
184,0,184,0,5,511.8008118,511.8008118,0.0661562,-0.331428571,0.385714286,1,0,0,1.7080111,  'target'  ,56194,1,2023-09-28_11h53.48.205,Tutorial_3,2023.1.3,59.93953299,,,,
186,0,186,0,5,515.6513655,515.6513655,0.0641594,-0.437142857,-0.261428571,1,0,0,1.8122939,  'target'  ,56194,1,2023-09-28_11h53.48.205,Tutorial_3,2023.1.3,59.93953299,,,,
187,0,187,0,5,517.5322493,517.5322493,0.0626918,0.19,-0.472857143,1,0,0,1.9700611,  'target'  ,56194,1,2023-09-28_11h53.48.205,Tutorial_3,2023.1.3,59.93953299,,,,
188,0,188,0,5,519.5830781,519.5830781,0.0641006,0.047142857,0.327142857,1,0,0,3.1912444,  'target'  ,56194,1,2023-09-28_11h53.48.205,Tutorial_3,2023.1.3,59.93953299,,,,
189,0,189,0,5,522.8475952,522.8475952,0.0648086,-0.212857143,0.341428571,1,0,0,1.672606,  'target'  ,56194,1,2023-09-28_11h53.48.205,Tutorial_3,2023.1.3,59.93953299,,,,
191,0,191,0,5,527.130661,527.130661,0.0654769,-0.251428571,-0.477142857,1,0,0,2.5591493,  'target'  ,56194,1,2023-09-28_11h53.48.205,Tutorial_3,2023.1.3,59.93953299,,,,
193,0,193,0,5,531.1463361,531.1463361,0.0638438,-0.045714286,-0.205714286,1,0,0,1.9032172,  'target'  ,56194,1,2023-09-28_11h53.48.205,Tutorial_3,2023.1.3,59.93953299,,,,
194,0,194,0,5,533.1105199,533.1105199,0.0593488,-0.054285714,-0.075714286,1,0,0,1.7793297,  'target'  ,56194,1,2023-09-28_11h53.48.205,Tutorial_3,2023.1.3,59.93953299,,,,
198,0,198,0,5,547.9053635,547.9053635,0.0560356,0.331428571,0.145714286,1,0,0,2.4182306,  'target'  ,56194,1,2023-09-28_11h53.48.205,Tutorial_3,2023.1.3,59.93953299,,,,
199,0,199,0,5,550.387943,550.387943,0.0586978,0.487142857,-0.002857143,1,0,0,2.7593665,  'target'  ,56194,1,2023-09-28_11h53.48.205,Tutorial_3,2023.1.3,59.93953299,,,,
0,0,0,0,10,23.8729384,23.8729384,0.1384398,0.085714286,0.278571429,1,0,0,4.0990049,  'target'  ,56194,1,2023-09-28_11h53.48.205,Tutorial_3,2023.1.3,59.93953299,,,,
1,0,1,0,10,28.0149664,28.0149664,0.0833028,-0.214285714,0.362857143,1,0,0,2.3834173,  'target'  ,56194,1,2023-09-28_11h53.48.205,Tutorial_3,2023.1.3,59.93953299,,,,
4,0,4,0,10,34.5957968,34.5957968,0.1071884,-0.46,-0.085714286,1,0,0,1.7972677,  'target'  ,56194,1,2023-09-28_11h53.48.205,Tutorial_3,2023.1.3,59.93953299,,,,
7,0,7,0,10,40.7769698,40.7769698,0.1411421,0.102857143,0.174285714,1,0,0,3.0630666,  'target'  ,56194,1,2023-09-28_11h53.48.205,Tutorial_3,2023.1.3,59.93953299,,,,
10,0,10,0,10,48.6410606,48.6410606,0.0866818,-0.35,0.282857143,1,0,0,2.5022155,  'target'  ,56194,1,2023-09-28_11h53.48.205,Tutorial_3,2023.1.3,59.93953299,,,,
12,0,12,0,10,52.7889347,52.7889347,0.0757235,0.001428571,-0.101428571,1,0,0,1.7084573,  'target'  ,56194,1,2023-09-28_11h53.48.205,Tutorial_3,2023.1.3,59.93953299,,,,
13,0,13,0,10,54.6067882,54.6067882,0.0858392,0.341428571,-0.462857143,1,0,0,2.5041058,    ,56194,1,2023-09-28_11h53.48.205,Tutorial_3,2023.1.3,59.93953299,,,,
16,0,16,0,10,60.4863955,60.4863955,0.0589994,0.082857143,-0.234285714,1,0,0,2.162922,  'target'  ,56194,1,2023-09-28_11h53.48.205,Tutorial_3,2023.1.3,59.93953299,,,,
17,0,17,0,10,62.7527063,62.7527063,0.082343,0.297142857,0.465714286,1,0,0,2.4199935,  'target'  ,56194,1,2023-09-28_11h53.48.205,Tutorial_3,2023.1.3,59.93953299,,,,
18,0,18,0,10,65.2684963,65.2684963,0.0927189,-0.04,0.298571429,1,0,0,1.1667258,  'target'  ,56194,1,2023-09-28_11h53.48.205,Tutorial_3,2023.1.3,59.93953299,,,,
19,0,19,0,10,66.603099,66.603099,0.1238454,0.411428571,-0.16,1,0,0,2.126459,  'target'  ,56194,1,2023-09-28_11h53.48.205,Tutorial_3,2023.1.3,59.93953299,,,,
21,0,21,0,10,73.2491279,73.2491279,0.0886245,-0.068571429,-0.402857143,1,0,0,3.2477779,  'target'  ,56194,1,2023-09-28_11h53.48.205,Tutorial_3,2023.1.3,59.93953299,,,,
22,0,22,0,10,76.6146706,76.6146706,0.100605,-0.008571429,-0.094285714,1,0,0,1.4704556,  'target'  ,56194,1,2023-09-28_11h53.48.205,Tutorial_3,2023.1.3,59.93953299,,,,
25,0,25,0,10,81.3625516,81.3625516,0.0913513,0.15,-0.23,1,0,0,2.28291,    ,56194,1,2023-09-28_11h53.48.205,Tutorial_3,2023.1.3,59.93953299,,,,
27,0,27,0,10,85.562873,85.562873,0.0665603,0.224285714,-0.335714286,1,0,0,1.5817563,  'target'  ,56194,1,2023-09-28_11h53.48.205,Tutorial_3,2023.1.3,59.93953299,,,,
29,0,29,0,10,88.9267932,88.9267932,0.0837701,-0.418571429,0.37,1,0,0,2.5714536,  'target'  ,56194,1,2023-09-28_11h53.48.205,Tutorial_3,2023.1.3,59.93953299,,,,
31,0,31,0,10,95.7909523,95.7909523,0.0963215,0.047142857,0.041428571,1,0,0,2.8413783,  'target'  ,56194,1,2023-09-28_11h53.48.205,Tutorial_3,2023.1.3,59.93953299,,,,
32,0,32,0,10,98.7402175,98.7402175,0.0921665,0.218571429,-0.351428571,1,0,0,2.3491538,  'target'  ,56194,1,2023-09-28_11h53.48.205,Tutorial_3,2023.1.3,59.93953299,,,,
39,0,39,0,10,111.6528461,111.6528461,0.1635346,0.167142857,-0.258571429,1,0,0,2.3500091,  'target'  ,56194,1,2023-09-28_11h53.48.205,Tutorial_3,2023.1.3,59.93953299,,,,
44,0,44,0,10,124.0157855,124.0157855,0.0888235,-0.044285714,-0.29,1,0,0,4.7998498,  'target'  ,56194,1,2023-09-28_11h53.48.205,Tutorial_3,2023.1.3,59.93953299,,,,
48,0,48,0,10,137.51222,137.51222,0.0627755,0.004285714,0.098571429,1,0,0,2.9559178,  'target'  ,56194,1,2023-09-28_11h53.48.205,Tutorial_3,2023.1.3,59.93953299,,,,
49,0,49,0,10,140.55934,140.55934,0.0834224,0.351428571,-0.354285714,1,0,0,2.8366441,  'target'  ,56194,1,2023-09-28_11h53.48.205,Tutorial_3,2023.1.3,59.93953299,,,,
52,0,52,0,10,147.1255844,147.1255844,0.1597346,-0.298571429,-0.231428571,1,0,0,3.1440869,  'target'  ,56194,1,2023-09-28_11h53.48.205,Tutorial_3,2023.1.3,59.93953299,,,,
53,0,53,0,10,150.3396002,150.3396002,0.110072,-0.457142857,0.33,1,0,0,2.5461586,  'target'  ,56194,1,2023-09-28_11h53.48.205,Tutorial_3,2023.1.3,59.93953299,,,,
55,0,55,0,10,153.2381759,153.2381759,0.074179,0.351428571,0.105714286,1,0,0,2.5372467,  'target'  ,56194,1,2023-09-28_11h53.48.205,Tutorial_3,2023.1.3,59.93953299,,,,
56,0,56,0,10,155.8712753,155.8712753,0.0847461,0.377142857,0.297142857,1,0,0,4.0169993,  'target'  ,56194,1,2023-09-28_11h53.48.205,Tutorial_3,2023.1.3,59.93953299,,,,
57,0,57,0,10,159.986143,159.986143,0.0838664,0.378571429,-0.408571429,1,0,0,3.0170405,  'target'  ,56194,1,2023-09-28_11h53.48.205,Tutorial_3,2023.1.3,59.93953299,,,,
59,0,59,0,10,164.9680352,164.9680352,0.0765593,0.367142857,0.3,1,0,0,3.2609592,  'target'  ,56194,1,2023-09-28_11h53.48.205,Tutorial_3,2023.1.3,59.93953299,,,,
61,0,61,0,10,170.9994299,170.9994299,0.0985739,0.322857143,-0.171428571,1,0,0,2.8586101,  'target'  ,56194,1,2023-09-28_11h53.48.205,Tutorial_3,2023.1.3,59.93953299,,,,
64,0,64,0,10,181.0960384,181.0960384,0.1210437,-0.002857143,-0.365714286,1,0,0,3.7812694,  'target'  ,56194,1,2023-09-28_11h53.48.205,Tutorial_3,2023.1.3,59.93953299,,,,
71,0,71,0,10,201.8058813,201.8058813,0.093203,0.405714286,-0.367142857,1,0,0,2.7270121,  'target'  ,56194,1,2023-09-28_11h53.48.205,Tutorial_3,2023.1.3,59.93953299,,,,
72,0,72,0,10,204.6231474,204.6231474,0.0767236,0.175714286,-0.314285714,1,0,0,2.7620513,  'target'  ,56194,1,2023-09-28_11h53.48.205,Tutorial_3,2023.1.3,59.93953299,,,,
73,0,73,0,10,207.4871597,207.4871597,0.0906362,-0.027142857,0.104285714,1,0,0,2.5121343,  'target'  ,56194,1,2023-09-28_11h53.48.205,Tutorial_3,2023.1.3,59.93953299,,,,
74,0,74,0,10,210.1028321,210.1028321,0.0889351,0.194285714,-0.048571429,1,0,0,1.5985601,  'target'  ,56194,1,2023-09-28_11h53.48.205,Tutorial_3,2023.1.3,59.93953299,,,,
76,0,76,0,10,214.6863968,214.6863968,0.0874933,-0.228571429,-0.302857143,1,0,0,2.0857877,  'target'  ,56194,1,2023-09-28_11h53.48.205,Tutorial_3,2023.1.3,59.93953299,,,,
78,0,78,0,10,222.265401,222.265401,0.0904367,0.365714286,-0.358571429,1,0,0,2.2951617,  'target'  ,56194,1,2023-09-28_11h53.48.205,Tutorial_3,2023.1.3,59.93953299,,,,
79,0,79,0,10,224.6997793,224.6997793,0.0636,-0.235714286,-0.122857143,1,0,0,2.5407346,  'target'  ,56194,1,2023-09-28_11h53.48.205,Tutorial_3,2023.1.3,59.93953299,,,,
80,0,80,0,10,227.2802983,227.2802983,0.0901453,0.372857143,0.027142857,1,0,0,3.3640876,  'target'  ,56194,1,2023-09-28_11h53.48.205,Tutorial_3,2023.1.3,59.93953299,,,,
82,0,82,0,10,234.3109374,234.3109374,0.0885228,-0.458571429,0.02,1,0,0,2.5655512,  'target'  ,56194,1,2023-09-28_11h53.48.205,Tutorial_3,2023.1.3,59.93953299,,,,
83,0,83,0,10,236.9951004,236.9951004,0.1029906,0.147142857,-0.072857143,1,0,0,3.3514079,  'target'  ,56194,1,2023-09-28_11h53.48.205,Tutorial_3,2023.1.3,59.93953299,,,,
86,0,86,0,10,245.157021,245.157021,0.0833583,0.024285714,-0.101428571,1,0,0,2.4869288,  'target'  ,56194,1,2023-09-28_11h53.48.205,Tutorial_3,2023.1.3,59.93953299,,,,
88,0,88,0,10,249.3389864,249.3389864,0.0932819,-0.3,-0.418571429,1,0,0,3.5578841,  'target'  ,56194,1,2023-09-28_11h53.48.205,Tutorial_3,2023.1.3,59.93953299,,,,
89,0,89,0,10,252.9884559,252.9884559,0.0820622,0.301428571,0.474285714,1,0,0,4.0552778,  'target'  ,56194,1,2023-09-28_11h53.48.205,Tutorial_3,2023.1.3,59.93953299,,,,
91,0,91,0,10,260.4213197,260.4213197,0.0843008,-0.205714286,0.077142857,1,0,0,1.5034256,  'target'  ,56194,1,2023-09-28_11h53.48.205,Tutorial_3,2023.1.3,59.93953299,,,,
92,0,92,0,10,262.0534753,262.0534753,0.0733266,0.074285714,0.214285714,1,0,0,1.8981341,  'target'  ,56194,1,2023-09-28_11h53.48.205,Tutorial_3,2023.1.3,59.93953299,,,,
95,0,95,0,10,269.9678632,269.9678632,0.1615275,0.154285714,-0.282857143,1,0,0,4.7109437,  'target'  ,56194,1,2023-09-28_11h53.48.205,Tutorial_3,2023.1.3,59.93953299,,,,
96,0,96,0,10,274.7473817,274.7473817,0.0880359,0.304285714,0.37,1,0,0,4.9953606,  'target'  ,56194,1,2023-09-28_11h53.48.205,Tutorial_3,2023.1.3,59.93953299,,,,
98,0,98,0,10,282.7448148,282.7448148,0.0895623,0.387142857,0.174285714,1,0,0,2.3283408,  'target'  ,56194,1,2023-09-28_11h53.48.205,Tutorial_3,2023.1.3,59.93953299,,,,
99,0,99,0,10,285.1603783,285.1603783,0.0838112,-0.325714286,-0.468571429,1,0,0,4.8034328,  'target'  ,56194,1,2023-09-28_11h53.48.205,Tutorial_3,2023.1.3,59.93953299,,,,
103,0,103,0,10,296.0904502,296.0904502,0.0934098,0.474285714,0.175714286,1,0,0,5.5768831,  'target'  ,56194,1,2023-09-28_11h53.48.205,Tutorial_3,2023.1.3,59.93953299,,,,
106,0,106,0,10,305.753705,305.753705,0.0744136,-0.184285714,-0.322857143,1,0,0,2.344023,  'target'  ,56194,1,2023-09-28_11h53.48.205,Tutorial_3,2023.1.3,59.93953299,,,,
110,0,110,0,10,314.4691096,314.4691096,0.0761423,0.21,0.347142857,1,0,0,2.7585957,  'target'  ,56194,1,2023-09-28_11h53.48.205,Tutorial_3,2023.1.3,59.93953299,,,,
115,0,115,0,10,325.5134549,325.5134549,0.0798832,-0.298571429,-0.368571429,1,0,0,1.790845,  'target'  ,56194,1,2023-09-28_11h53.48.205,Tutorial_3,2023.1.3,59.93953299,,,,
116,0,116,0,10,327.4128957,327.4128957,0.0925291,-0.025714286,-0.045714286,1,0,0,2.2646514,  'target'  ,56194,1,2023-09-28_11h53.48.205,Tutorial_3,2023.1.3,59.93953299,,,,
119,0,119,0,10,334.8106915,334.8106915,0.0905507,-0.41,-0.012857143,1,0,0,1.8478348,  'target'  ,56194,1,2023-09-28_11h53.48.205,Tutorial_3,2023.1.3,59.93953299,,,,
121,0,121,0,10,338.8093383,338.8093383,0.0895903,0.047142857,-0.09,1,0,0,1.7313638,  'target'  ,56194,1,2023-09-28_11h53.48.205,Tutorial_3,2023.1.3,59.93953299,,,,
122,0,122,0,10,340.6441093,340.6441093,0.091738,0.347142857,-0.438571429,1,0,0,3.7621073,  'target'  ,56194,1,2023-09-28_11h53.48.205,Tutorial_3,2023.1.3,59.93953299,,,,
123,0,123,0,10,344.5089473,344.5089473,0.0902752,0.162857143,-0.124285714,1,0,0,1.7812302,  'target'  ,56194,1,2023-09-28_11h53.48.205,Tutorial_3,2023.1.3,59.93953299,,,,
125,0,125,0,10,348.3226912,348.3226912,0.0843554,-0.054285714,0.271428571,1,0,0,3.6021903,  'target'  ,56194,1,2023-09-28_11h53.48.205,Tutorial_3,2023.1.3,59.93953299,,,,
126,0,126,0,10,352.0379785,352.0379785,0.0970206,-0.4,0.238571429,1,0,0,1.7077789,  'target'  ,56194,1,2023-09-28_11h53.48.205,Tutorial_3,2023.1.3,59.93953299,,,,
131,0,131,0,10,363.6513002,363.6513002,0.0890112,-0.107142857,-0.308571429,1,0,0,3.7825643,  'target'  ,56194,1,2023-09-28_11h53.48.205,Tutorial_3,2023.1.3,59.93953299,,,,
133,0,133,0,10,371.2834123,371.2834123,0.0893161,0.457142857,-0.12,1,0,0,3.8463841,  'target'  ,56194,1,2023-09-28_11h53.48.205,Tutorial_3,2023.1.3,59.93953299,,,,
134,0,134,0,10,375.2132493,375.2132493,0.0790356,0.244285714,0.362857143,1,0,0,2.7271551,  'target'  ,56194,1,2023-09-28_11h53.48.205,Tutorial_3,2023.1.3,59.93953299,,,,
135,0,135,0,10,378.0454309,378.0454309,0.0905373,-0.507142857,-0.16,1,0,0,2.5284385,  'target'  ,56194,1,2023-09-28_11h53.48.205,Tutorial_3,2023.1.3,59.93953299,,,,
136,0,136,0,10,380.6778084,380.6778084,0.0955759,-0.325714286,-0.395714286,1,0,0,3.408771,  'target'  ,56194,1,2023-09-28_11h53.48.205,Tutorial_3,2023.1.3,59.93953299,,,,
137,0,137,0,10,384.1768628,384.1768628,0.0796189,0.228571429,-0.277142857,1,0,0,3.2103424,  'target'  ,56194,1,2023-09-28_11h53.48.205,Tutorial_3,2023.1.3,59.93953299,,,,
138,0,138,0,10,387.5433109,387.5433109,0.1236708,-0.455714286,-0.204285714,1,0,0,4.4436648,  'target'  ,56194,1,2023-09-28_11h53.48.205,Tutorial_3,2023.1.3,59.93953299,,,,
139,0,139,0,10,392.1083647,392.1083647,0.1194682,0.007142857,-0.405714286,1,0,0,3.1850062,  'target'  ,56194,1,2023-09-28_11h53.48.205,Tutorial_3,2023.1.3,59.93953299,,,,
140,0,140,0,10,395.3916733,395.3916733,0.0852253,0.068571429,0.058571429,1,0,0,2.5526167,  'target'  ,56194,1,2023-09-28_11h53.48.205,Tutorial_3,2023.1.3,59.93953299,,,,
148,0,148,0,10,415.9331897,415.9331897,0.082852,-0.284285714,-0.297142857,1,0,0,2.6846018,  'target'  ,56194,1,2023-09-28_11h53.48.205,Tutorial_3,2023.1.3,59.93953299,,,,
149,0,149,0,10,418.6989219,418.6989219,0.0828998,0.444285714,0.282857143,1,0,0,2.6038043,  'target'  ,56194,1,2023-09-28_11h53.48.205,Tutorial_3,2023.1.3,59.93953299,,,,
150,0,150,0,10,421.3831532,421.3831532,0.0651867,-0.385714286,-0.297142857,1,0,0,2.7588462,  'target'  ,56194,1,2023-09-28_11h53.48.205,Tutorial_3,2023.1.3,59.93953299,,,,
151,0,151,0,10,424.2472358,424.2472358,0.0803935,0.075714286,0.338571429,1,0,0,2.3702699,  'target'  ,56194,1,2023-09-28_11h53.48.205,Tutorial_3,2023.1.3,59.93953299,,,,
154,0,154,0,10,431.8612344,431.8612344,0.097913,0.052857143,-0.448571429,1,0,0,2.4082428,  'target'  ,56194,1,2023-09-28_11h53.48.205,Tutorial_3,2023.1.3,59.93953299,,,,
155,0,155,0,10,434.3619624,434.3619624,0.0861791,0.468571429,-0.198571429,1,0,0,1.3846511,  'target'  ,56194,1,2023-09-28_11h53.48.205,Tutorial_3,2023.1.3,59.93953299,,,,
156,0,156,0,10,435.8599876,435.8599876,0.0940807,-0.051428571,-0.351428571,1,0,0,2.4745022,  'target'  ,56194,1,2023-09-28_11h53.48.205,Tutorial_3,2023.1.3,59.93953299,,,,
157,0,157,0,10,438.4257001,438.4257001,0.0871207,-0.414285714,0.422857143,1,0,0,1.8692679,  'target'  ,56194,1,2023-09-28_11h53.48.205,Tutorial_3,2023.1.3,59.93953299,,,,
158,0,158,0,10,440.3750694,440.3750694,0.0742442,0.144285714,0.01,1,0,0,2.4802262,  'target'  ,56194,1,2023-09-28_11h53.48.205,Tutorial_3,2023.1.3,59.93953299,,,,
160,0,160,0,10,445.0736693,445.0736693,0.0834259,0.262857143,0.197142857,1,0,0,3.5675841,  'target'  ,56194,1,2023-09-28_11h53.48.205,Tutorial_3,2023.1.3,59.93953299,,,,
161,0,161,0,10,448.7384529,448.7384529,0.0908971,-0.364285714,-0.241428571,1,0,0,2.7953863,  'target'  ,56194,1,2023-09-28_11h53.48.205,Tutorial_3,2023.1.3,59.93953299,,,,
162,0,162,0,10,451.6541066,451.6541066,0.1037261,-0.438571429,0.355714286,1,0,0,2.1825585,  'target'  ,56194,1,2023-09-28_11h53.48.205,Tutorial_3,2023.1.3,59.93953299,,,,
163,0,163,0,10,453.9542136,453.9542136,0.0996622,-0.238571429,0.471428571,1,0,0,2.3722682,  'target'  ,56194,1,2023-09-28_11h53.48.205,Tutorial_3,2023.1.3,59.93953299,,,,
166,0,166,0,10,461.8179101,461.8179101,0.0880465,-0.387142857,0.07,1,0,0,2.8493195,  'target'  ,56194,1,2023-09-28_11h53.48.205,Tutorial_3,2023.1.3,59.93953299,,,,
167,0,167,0,10,464.7664634,464.7664634,0.0906911,0.315714286,0.48,1,0,0,3.4473223,  'target'  ,56194,1,2023-09-28_11h53.48.205,Tutorial_3,2023.1.3,59.93953299,,,,
173,0,173,0,10,480.9947376,480.9947376,0.0906882,-0.235714286,-0.427142857,1,0,0,2.147239,  'target'  ,56194,1,2023-09-28_11h53.48.205,Tutorial_3,2023.1.3,59.93953299,,,,
174,0,174,0,10,483.2100187,483.2100187,0.059078,-0.252857143,-0.088571429,1,0,0,3.1092727,  'target'  ,56194,1,2023-09-28_11h53.48.205,Tutorial_3,2023.1.3,59.93953299,,,,
175,0,175,0,10,486.4095931,486.4095931,0.0780744,0.427142857,-0.472857143,1,0,0,3.1488163,  'target'  ,56194,1,2023-09-28_11h53.48.205,Tutorial_3,2023.1.3,59.93953299,,,,
176,0,176,0,10,489.6755589,489.6755589,0.1010693,0.288571429,-0.067142857,1,0,0,2.0201779,  'target'  ,56194,1,2023-09-28_11h53.48.205,Tutorial_3,2023.1.3,59.93953299,,,,
180,0,180,0,10,498.4216839,498.4216839,0.074128,0.115714286,-0.197142857,1,0,0,3.0428496,  'target'  ,56194,1,2023-09-28_11h53.48.205,Tutorial_3,2023.1.3,59.93953299,,,,
181,0,181,0,10,501.5561508,501.5561508,0.0697153,0.085714286,0.462857143,1,0,0,4.617689,  'target'  ,56194,1,2023-09-28_11h53.48.205,Tutorial_3,2023.1.3,59.93953299,,,,
182,0,182,0,10,506.2538777,506.2538777,0.0688972,-0.1,-0.277142857,1,0,0,2.6174305,  'target'  ,56194,1,2023-09-28_11h53.48.205,Tutorial_3,2023.1.3,59.93953299,,,,
183,0,183,0,10,508.9348414,508.9348414,0.0645305,0.054285714,0.218571429,1,0,0,2.7894794,  'target'  ,56194,1,2023-09-28_11h53.48.205,Tutorial_3,2023.1.3,59.93953299,,,,
185,0,185,0,10,513.6186798,513.6186798,0.0895383,0.272857143,-0.012857143,1,0,0,1.9452512,  'target'  ,56194,1,2023-09-28_11h53.48.205,Tutorial_3,2023.1.3,59.93953299,,,,
190,0,190,0,10,524.6132326,524.6132326,0.0861494,-0.334285714,0.411428571,1,0,0,2.4348425,  'target'  ,56194,1,2023-09-28_11h53.48.205,Tutorial_3,2023.1.3,59.93953299,,,,
192,0,192,0,10,529.7464089,529.7464089,0.0600151,-0.258571429,0.037142857,1,0,0,1.3115124,  'target'  ,56194,1,2023-09-28_11h53.48.205,Tutorial_3,2023.1.3,59.93953299,,,,
195,0,195,0,10,534.9764527,534.9764527,0.0835577,-0.284285714,0.41,1,0,0,5.018781,  'target'  ,56194,1,2023-09-28_11h53.48.205,Tutorial_3,2023.1.3,59.93953299,,,,
196,0,196,0,10,540.1081876,540.1081876,0.0899467,0.464285714,0.404285714,1,0,0,4.2309639,  'target'  ,56194,1,2023-09-28_11h53.48.205,Tutorial_3,2023.1.3,59.93953299,,,,
197,0,197,0,10,544.4228928,544.4228928,0.081155,0.434285714,-0.46,1,0,0,3.4074197,  'target'  ,56194,1,2023-09-28_11h53.48.205,Tutorial_3,2023.1.3,59.93953299,,,,
